<http://www.example.org/datasets/ADSL/01-701-1015> <http://www.example.org/datasets/vocab/ADSL_TRTSDT> "19725.0E0"^^<http://www.w3.org/2001/XMLSchema#double> .
<http://www.example.org/datasets/ADSL/01-701-1015> <http://www.example.org/datasets/vocab/ADSL_SAFFL> "Y" .
<http://www.example.org/datasets/ADSL/01-701-1015> <http://www.example.org/datasets/vocab/ADSL_TRTEDT> "19906.0E0"^^<http://www.w3.org/2001/XMLSchema#double> .
<http://www.example.org/datasets/ADSL/01-701-1015> <http://www.example.org/datasets/vocab/ADSL_DTHFL> "" .
<http://www.example.org/datasets/ADSL/01-701-1015> <http://www.example.org/datasets/vocab/ADSL_AGE> "63.0E0"^^<http://www.w3.org/2001/XMLSchema#double> .
<http://www.example.org/datasets/ADSL/01-701-1015> <http://www.example.org/datasets/vocab/ADSL_RFSTDTC> "2014-01-02" .
<http://www.example.org/datasets/ADSL/01-701-1015> <http://www.example.org/datasets/vocab/ADSL_SEX> "F" .
<http://www.example.org/datasets/ADSL/01-701-1015> <http://www.example.org/datasets/vocab/ADSL_DURDSGR1> ">=12" .
<http://www.example.org/datasets/ADSL/01-701-1015> <http://www.example.org/datasets/vocab/ADSL_TRTDUR> "182.0E0"^^<http://www.w3.org/2001/XMLSchema#double> .
<http://www.example.org/datasets/ADSL/01-701-1015> <http://www.example.org/datasets/vocab/ADSL_USUBJID> "01-701-1015" .
<http://www.example.org/datasets/ADSL/01-701-1015> <http://www.example.org/datasets/vocab/ADSL_TRT01A> "Placebo" .
<http://www.example.org/datasets/ADSL/01-701-1015> <http://www.example.org/datasets/vocab/ADSL_HEIGHTBL> "147.3E0"^^<http://www.w3.org/2001/XMLSchema#double> .
<http://www.example.org/datasets/ADSL/01-701-1015> <http://www.example.org/datasets/vocab/ADSL_ETHNIC> "HISPANIC OR LATINO" .
<http://www.example.org/datasets/ADSL/01-701-1015> <http://www.example.org/datasets/vocab/ADSL_RACE> "WHITE" .
<http://www.example.org/datasets/ADSL/01-701-1015> <http://www.example.org/datasets/vocab/ADSL_TRT01AN> "0.0E0"^^<http://www.w3.org/2001/XMLSchema#double> .
<http://www.example.org/datasets/ADSL/01-701-1015> <http://www.example.org/datasets/vocab/ADSL_SITEGR1> "701" .
<http://www.example.org/datasets/ADSL/01-701-1015> <http://www.example.org/datasets/vocab/ADSL_TRT01PN> "0.0E0"^^<http://www.w3.org/2001/XMLSchema#double> .
<http://www.example.org/datasets/ADSL/01-701-1015> <http://www.example.org/datasets/vocab/ADSL_VISNUMEN> "12.0E0"^^<http://www.w3.org/2001/XMLSchema#double> .
<http://www.example.org/datasets/ADSL/01-701-1015> <http://www.example.org/datasets/vocab/ADSL_AGEU> "YEARS" .
<http://www.example.org/datasets/ADSL/01-701-1015> <http://www.example.org/datasets/vocab/ADSL_COMP16FL> "Y" .
<http://www.example.org/datasets/ADSL/01-701-1015> <http://www.example.org/datasets/vocab/ADSL_AVGDD> "0.0E0"^^<http://www.w3.org/2001/XMLSchema#double> .
<http://www.example.org/datasets/ADSL/01-701-1015> <http://www.example.org/datasets/vocab/ADSL_SITEID> "701" .
<http://www.example.org/datasets/ADSL/01-701-1015> <http://www.example.org/datasets/vocab/ADSL_WEIGHTBL> "54.4E0"^^<http://www.w3.org/2001/XMLSchema#double> .
<http://www.example.org/datasets/ADSL/01-701-1015> <http://www.example.org/datasets/vocab/ADSL_COMP24FL> "Y" .
<http://www.example.org/datasets/ADSL/01-701-1015> <http://www.example.org/datasets/vocab/ADSL_DURDIS> "43.9E0"^^<http://www.w3.org/2001/XMLSchema#double> .
<http://www.example.org/datasets/ADSL/01-701-1015> <http://www.example.org/datasets/vocab/ADSL_RACEN> "1.0E0"^^<http://www.w3.org/2001/XMLSchema#double> .
<http://www.example.org/datasets/ADSL/01-701-1015> <http://www.example.org/datasets/vocab/ADSL_ITTFL> "Y" .
<http://www.example.org/datasets/ADSL/01-701-1015> <http://www.example.org/datasets/vocab/ADSL_STUDYID> "CDISCPILOT01" .
<http://www.example.org/datasets/ADSL/01-701-1015> <http://www.example.org/datasets/vocab/ADSL_BMIBLGR1> "25-<30" .
<http://www.example.org/datasets/ADSL/01-701-1015> <http://www.example.org/datasets/vocab/ADSL_TRT01P> "Placebo" .
<http://www.example.org/datasets/ADSL/01-701-1015> <http://www.example.org/datasets/vocab/ADSL_EDUCLVL> "16.0E0"^^<http://www.w3.org/2001/XMLSchema#double> .
<http://www.example.org/datasets/ADSL/01-701-1015> <http://www.example.org/datasets/vocab/ADSL_EFFFL> "Y" .
<http://www.example.org/datasets/ADSL/01-701-1015> <http://www.example.org/datasets/vocab/ADSL_ARM> "Placebo" .
<http://www.example.org/datasets/ADSL/01-701-1015> <http://www.w3.org/2000/01/rdf-schema#label> "ADSL #01-701-1015" .
<http://www.example.org/datasets/ADSL/01-701-1015> <http://www.example.org/datasets/vocab/ADSL_AGEGR1N> "1.0E0"^^<http://www.w3.org/2001/XMLSchema#double> .
<http://www.example.org/datasets/ADSL/01-701-1015> <http://www.example.org/datasets/vocab/ADSL_RFENDT> "19906.0E0"^^<http://www.w3.org/2001/XMLSchema#double> .
<http://www.example.org/datasets/ADSL/01-701-1015> <http://www.example.org/datasets/vocab/ADSL_CUMDOSE> "0.0E0"^^<http://www.w3.org/2001/XMLSchema#double> .
<http://www.example.org/datasets/ADSL/01-701-1015> <http://www.example.org/datasets/vocab/ADSL_DCREASCD> "Completed" .
<http://www.example.org/datasets/ADSL/01-701-1015> <http://www.example.org/datasets/vocab/ADSL_BMIBL> "25.1E0"^^<http://www.w3.org/2001/XMLSchema#double> .
<http://www.example.org/datasets/ADSL/01-701-1015> <http://www.example.org/datasets/vocab/ADSL_DISCONFL> "" .
<http://www.example.org/datasets/ADSL/01-701-1015> <http://www.example.org/datasets/vocab/ADSL_DSRAEFL> "" .
<http://www.example.org/datasets/ADSL/01-701-1015> <http://www.example.org/datasets/vocab/ADSL_MMSETOT> "23.0E0"^^<http://www.w3.org/2001/XMLSchema#double> .
<http://www.example.org/datasets/ADSL/01-701-1015> <http://www.example.org/datasets/vocab/ADSL_DCDECOD> "COMPLETED" .
<http://www.example.org/datasets/ADSL/01-701-1015> <http://www.example.org/datasets/vocab/ADSL_RFENDTC> "2014-07-02" .
<http://www.example.org/datasets/ADSL/01-701-1015> <http://www.example.org/datasets/vocab/ADSL_DISONSDT> "18382.0E0"^^<http://www.w3.org/2001/XMLSchema#double> .
<http://www.example.org/datasets/ADSL/01-701-1015> <http://www.example.org/datasets/vocab/ADSL_AGEGR1> "<65" .
<http://www.example.org/datasets/ADSL/01-701-1015> <http://www.example.org/datasets/vocab/ADSL_VISIT1DT> "19718.0E0"^^<http://www.w3.org/2001/XMLSchema#double> .
<http://www.example.org/datasets/ADSL/01-701-1015> <http://www.example.org/datasets/vocab/ADSL_COMP8FL> "Y" .
<http://www.example.org/datasets/ADSL/01-701-1015> <http://www.example.org/datasets/vocab/ADSL_SUBJID> "1015" .
<http://www.example.org/datasets/ADSL/01-701-1015> <http://www.w3.org/1999/02/22-rdf-syntax-ns#type> <http://www.example.org/datasets/vocab/ADSL> .
<http://www.example.org/datasets/ADSL/01-701-1023> <http://www.example.org/datasets/vocab/ADSL_TRTSDT> "19210.0E0"^^<http://www.w3.org/2001/XMLSchema#double> .
<http://www.example.org/datasets/ADSL/01-701-1023> <http://www.example.org/datasets/vocab/ADSL_SAFFL> "Y" .
<http://www.example.org/datasets/ADSL/01-701-1023> <http://www.example.org/datasets/vocab/ADSL_TRTEDT> "19237.0E0"^^<http://www.w3.org/2001/XMLSchema#double> .
<http://www.example.org/datasets/ADSL/01-701-1023> <http://www.example.org/datasets/vocab/ADSL_DTHFL> "" .
<http://www.example.org/datasets/ADSL/01-701-1023> <http://www.example.org/datasets/vocab/ADSL_AGE> "64.0E0"^^<http://www.w3.org/2001/XMLSchema#double> .
<http://www.example.org/datasets/ADSL/01-701-1023> <http://www.example.org/datasets/vocab/ADSL_RFSTDTC> "2012-08-05" .
<http://www.example.org/datasets/ADSL/01-701-1023> <http://www.example.org/datasets/vocab/ADSL_SEX> "M" .
<http://www.example.org/datasets/ADSL/01-701-1023> <http://www.example.org/datasets/vocab/ADSL_DURDSGR1> ">=12" .
<http://www.example.org/datasets/ADSL/01-701-1023> <http://www.example.org/datasets/vocab/ADSL_TRTDUR> "28.0E0"^^<http://www.w3.org/2001/XMLSchema#double> .
<http://www.example.org/datasets/ADSL/01-701-1023> <http://www.example.org/datasets/vocab/ADSL_USUBJID> "01-701-1023" .
<http://www.example.org/datasets/ADSL/01-701-1023> <http://www.example.org/datasets/vocab/ADSL_TRT01A> "Placebo" .
<http://www.example.org/datasets/ADSL/01-701-1023> <http://www.example.org/datasets/vocab/ADSL_HEIGHTBL> "162.6E0"^^<http://www.w3.org/2001/XMLSchema#double> .
<http://www.example.org/datasets/ADSL/01-701-1023> <http://www.example.org/datasets/vocab/ADSL_ETHNIC> "HISPANIC OR LATINO" .
<http://www.example.org/datasets/ADSL/01-701-1023> <http://www.example.org/datasets/vocab/ADSL_RACE> "WHITE" .
<http://www.example.org/datasets/ADSL/01-701-1023> <http://www.example.org/datasets/vocab/ADSL_TRT01AN> "0.0E0"^^<http://www.w3.org/2001/XMLSchema#double> .
<http://www.example.org/datasets/ADSL/01-701-1023> <http://www.example.org/datasets/vocab/ADSL_SITEGR1> "701" .
<http://www.example.org/datasets/ADSL/01-701-1023> <http://www.example.org/datasets/vocab/ADSL_TRT01PN> "0.0E0"^^<http://www.w3.org/2001/XMLSchema#double> .
<http://www.example.org/datasets/ADSL/01-701-1023> <http://www.example.org/datasets/vocab/ADSL_VISNUMEN> "5.0E0"^^<http://www.w3.org/2001/XMLSchema#double> .
<http://www.example.org/datasets/ADSL/01-701-1023> <http://www.example.org/datasets/vocab/ADSL_AGEU> "YEARS" .
<http://www.example.org/datasets/ADSL/01-701-1023> <http://www.example.org/datasets/vocab/ADSL_COMP16FL> "N" .
<http://www.example.org/datasets/ADSL/01-701-1023> <http://www.example.org/datasets/vocab/ADSL_AVGDD> "0.0E0"^^<http://www.w3.org/2001/XMLSchema#double> .
<http://www.example.org/datasets/ADSL/01-701-1023> <http://www.example.org/datasets/vocab/ADSL_SITEID> "701" .
<http://www.example.org/datasets/ADSL/01-701-1023> <http://www.example.org/datasets/vocab/ADSL_WEIGHTBL> "80.3E0"^^<http://www.w3.org/2001/XMLSchema#double> .
<http://www.example.org/datasets/ADSL/01-701-1023> <http://www.example.org/datasets/vocab/ADSL_COMP24FL> "N" .
<http://www.example.org/datasets/ADSL/01-701-1023> <http://www.example.org/datasets/vocab/ADSL_DURDIS> "76.4E0"^^<http://www.w3.org/2001/XMLSchema#double> .
<http://www.example.org/datasets/ADSL/01-701-1023> <http://www.example.org/datasets/vocab/ADSL_RACEN> "1.0E0"^^<http://www.w3.org/2001/XMLSchema#double> .
<http://www.example.org/datasets/ADSL/01-701-1023> <http://www.example.org/datasets/vocab/ADSL_ITTFL> "Y" .
<http://www.example.org/datasets/ADSL/01-701-1023> <http://www.example.org/datasets/vocab/ADSL_STUDYID> "CDISCPILOT01" .
<http://www.example.org/datasets/ADSL/01-701-1023> <http://www.example.org/datasets/vocab/ADSL_BMIBLGR1> ">=30" .
<http://www.example.org/datasets/ADSL/01-701-1023> <http://www.example.org/datasets/vocab/ADSL_TRT01P> "Placebo" .
<http://www.example.org/datasets/ADSL/01-701-1023> <http://www.example.org/datasets/vocab/ADSL_EDUCLVL> "14.0E0"^^<http://www.w3.org/2001/XMLSchema#double> .
<http://www.example.org/datasets/ADSL/01-701-1023> <http://www.example.org/datasets/vocab/ADSL_EFFFL> "Y" .
<http://www.example.org/datasets/ADSL/01-701-1023> <http://www.example.org/datasets/vocab/ADSL_ARM> "Placebo" .
<http://www.example.org/datasets/ADSL/01-701-1023> <http://www.w3.org/2000/01/rdf-schema#label> "ADSL #01-701-1023" .
<http://www.example.org/datasets/ADSL/01-701-1023> <http://www.example.org/datasets/vocab/ADSL_AGEGR1N> "1.0E0"^^<http://www.w3.org/2001/XMLSchema#double> .
<http://www.example.org/datasets/ADSL/01-701-1023> <http://www.example.org/datasets/vocab/ADSL_RFENDT> "19238.0E0"^^<http://www.w3.org/2001/XMLSchema#double> .
<http://www.example.org/datasets/ADSL/01-701-1023> <http://www.example.org/datasets/vocab/ADSL_CUMDOSE> "0.0E0"^^<http://www.w3.org/2001/XMLSchema#double> .
<http://www.example.org/datasets/ADSL/01-701-1023> <http://www.example.org/datasets/vocab/ADSL_DCREASCD> "Adverse Event" .
<http://www.example.org/datasets/ADSL/01-701-1023> <http://www.example.org/datasets/vocab/ADSL_BMIBL> "30.4E0"^^<http://www.w3.org/2001/XMLSchema#double> .
<http://www.example.org/datasets/ADSL/01-701-1023> <http://www.example.org/datasets/vocab/ADSL_DISCONFL> "Y" .
<http://www.example.org/datasets/ADSL/01-701-1023> <http://www.example.org/datasets/vocab/ADSL_DSRAEFL> "Y" .
<http://www.example.org/datasets/ADSL/01-701-1023> <http://www.example.org/datasets/vocab/ADSL_MMSETOT> "23.0E0"^^<http://www.w3.org/2001/XMLSchema#double> .
<http://www.example.org/datasets/ADSL/01-701-1023> <http://www.example.org/datasets/vocab/ADSL_DCDECOD> "ADVERSE EVENT" .
<http://www.example.org/datasets/ADSL/01-701-1023> <http://www.example.org/datasets/vocab/ADSL_RFENDTC> "2012-09-02" .
<http://www.example.org/datasets/ADSL/01-701-1023> <http://www.example.org/datasets/vocab/ADSL_DISONSDT> "16871.0E0"^^<http://www.w3.org/2001/XMLSchema#double> .
<http://www.example.org/datasets/ADSL/01-701-1023> <http://www.example.org/datasets/vocab/ADSL_AGEGR1> "<65" .
<http://www.example.org/datasets/ADSL/01-701-1023> <http://www.example.org/datasets/vocab/ADSL_VISIT1DT> "19196.0E0"^^<http://www.w3.org/2001/XMLSchema#double> .
<http://www.example.org/datasets/ADSL/01-701-1023> <http://www.example.org/datasets/vocab/ADSL_COMP8FL> "N" .
<http://www.example.org/datasets/ADSL/01-701-1023> <http://www.example.org/datasets/vocab/ADSL_SUBJID> "1023" .
<http://www.example.org/datasets/ADSL/01-701-1023> <http://www.w3.org/1999/02/22-rdf-syntax-ns#type> <http://www.example.org/datasets/vocab/ADSL> .
<http://www.example.org/datasets/ADSL/01-701-1028> <http://www.example.org/datasets/vocab/ADSL_TRTSDT> "19558.0E0"^^<http://www.w3.org/2001/XMLSchema#double> .
<http://www.example.org/datasets/ADSL/01-701-1028> <http://www.example.org/datasets/vocab/ADSL_SAFFL> "Y" .
<http://www.example.org/datasets/ADSL/01-701-1028> <http://www.example.org/datasets/vocab/ADSL_TRTEDT> "19737.0E0"^^<http://www.w3.org/2001/XMLSchema#double> .
<http://www.example.org/datasets/ADSL/01-701-1028> <http://www.example.org/datasets/vocab/ADSL_DTHFL> "" .
<http://www.example.org/datasets/ADSL/01-701-1028> <http://www.example.org/datasets/vocab/ADSL_AGE> "71.0E0"^^<http://www.w3.org/2001/XMLSchema#double> .
<http://www.example.org/datasets/ADSL/01-701-1028> <http://www.example.org/datasets/vocab/ADSL_RFSTDTC> "2013-07-19" .
<http://www.example.org/datasets/ADSL/01-701-1028> <http://www.example.org/datasets/vocab/ADSL_SEX> "M" .
<http://www.example.org/datasets/ADSL/01-701-1028> <http://www.example.org/datasets/vocab/ADSL_DURDSGR1> ">=12" .
<http://www.example.org/datasets/ADSL/01-701-1028> <http://www.example.org/datasets/vocab/ADSL_TRTDUR> "180.0E0"^^<http://www.w3.org/2001/XMLSchema#double> .
<http://www.example.org/datasets/ADSL/01-701-1028> <http://www.example.org/datasets/vocab/ADSL_USUBJID> "01-701-1028" .
<http://www.example.org/datasets/ADSL/01-701-1028> <http://www.example.org/datasets/vocab/ADSL_TRT01A> "Xanomeline High Dose" .
<http://www.example.org/datasets/ADSL/01-701-1028> <http://www.example.org/datasets/vocab/ADSL_HEIGHTBL> "177.8E0"^^<http://www.w3.org/2001/XMLSchema#double> .
<http://www.example.org/datasets/ADSL/01-701-1028> <http://www.example.org/datasets/vocab/ADSL_ETHNIC> "NOT HISPANIC OR LATINO" .
<http://www.example.org/datasets/ADSL/01-701-1028> <http://www.example.org/datasets/vocab/ADSL_RACE> "WHITE" .
<http://www.example.org/datasets/ADSL/01-701-1028> <http://www.example.org/datasets/vocab/ADSL_TRT01AN> "81.0E0"^^<http://www.w3.org/2001/XMLSchema#double> .
<http://www.example.org/datasets/ADSL/01-701-1028> <http://www.example.org/datasets/vocab/ADSL_SITEGR1> "701" .
<http://www.example.org/datasets/ADSL/01-701-1028> <http://www.example.org/datasets/vocab/ADSL_TRT01PN> "81.0E0"^^<http://www.w3.org/2001/XMLSchema#double> .
<http://www.example.org/datasets/ADSL/01-701-1028> <http://www.example.org/datasets/vocab/ADSL_VISNUMEN> "12.0E0"^^<http://www.w3.org/2001/XMLSchema#double> .
<http://www.example.org/datasets/ADSL/01-701-1028> <http://www.example.org/datasets/vocab/ADSL_AGEU> "YEARS" .
<http://www.example.org/datasets/ADSL/01-701-1028> <http://www.example.org/datasets/vocab/ADSL_COMP16FL> "Y" .
<http://www.example.org/datasets/ADSL/01-701-1028> <http://www.example.org/datasets/vocab/ADSL_AVGDD> "77.7E0"^^<http://www.w3.org/2001/XMLSchema#double> .
<http://www.example.org/datasets/ADSL/01-701-1028> <http://www.example.org/datasets/vocab/ADSL_SITEID> "701" .
<http://www.example.org/datasets/ADSL/01-701-1028> <http://www.example.org/datasets/vocab/ADSL_WEIGHTBL> "99.3E0"^^<http://www.w3.org/2001/XMLSchema#double> .
<http://www.example.org/datasets/ADSL/01-701-1028> <http://www.example.org/datasets/vocab/ADSL_COMP24FL> "Y" .
<http://www.example.org/datasets/ADSL/01-701-1028> <http://www.example.org/datasets/vocab/ADSL_DURDIS> "42.8E0"^^<http://www.w3.org/2001/XMLSchema#double> .
<http://www.example.org/datasets/ADSL/01-701-1028> <http://www.example.org/datasets/vocab/ADSL_RACEN> "1.0E0"^^<http://www.w3.org/2001/XMLSchema#double> .
<http://www.example.org/datasets/ADSL/01-701-1028> <http://www.example.org/datasets/vocab/ADSL_ITTFL> "Y" .
<http://www.example.org/datasets/ADSL/01-701-1028> <http://www.example.org/datasets/vocab/ADSL_STUDYID> "CDISCPILOT01" .
<http://www.example.org/datasets/ADSL/01-701-1028> <http://www.example.org/datasets/vocab/ADSL_BMIBLGR1> ">=30" .
<http://www.example.org/datasets/ADSL/01-701-1028> <http://www.example.org/datasets/vocab/ADSL_TRT01P> "Xanomeline High Dose" .
<http://www.example.org/datasets/ADSL/01-701-1028> <http://www.example.org/datasets/vocab/ADSL_EDUCLVL> "16.0E0"^^<http://www.w3.org/2001/XMLSchema#double> .
<http://www.example.org/datasets/ADSL/01-701-1028> <http://www.example.org/datasets/vocab/ADSL_EFFFL> "Y" .
<http://www.example.org/datasets/ADSL/01-701-1028> <http://www.example.org/datasets/vocab/ADSL_ARM> "Xanomeline High Dose" .
<http://www.example.org/datasets/ADSL/01-701-1028> <http://www.w3.org/2000/01/rdf-schema#label> "ADSL #01-701-1028" .
<http://www.example.org/datasets/ADSL/01-701-1028> <http://www.example.org/datasets/vocab/ADSL_AGEGR1N> "2.0E0"^^<http://www.w3.org/2001/XMLSchema#double> .
<http://www.example.org/datasets/ADSL/01-701-1028> <http://www.example.org/datasets/vocab/ADSL_RFENDT> "19737.0E0"^^<http://www.w3.org/2001/XMLSchema#double> .
<http://www.example.org/datasets/ADSL/01-701-1028> <http://www.example.org/datasets/vocab/ADSL_CUMDOSE> "13986.0E0"^^<http://www.w3.org/2001/XMLSchema#double> .
<http://www.example.org/datasets/ADSL/01-701-1028> <http://www.example.org/datasets/vocab/ADSL_DCREASCD> "Completed" .
<http://www.example.org/datasets/ADSL/01-701-1028> <http://www.example.org/datasets/vocab/ADSL_BMIBL> "31.4E0"^^<http://www.w3.org/2001/XMLSchema#double> .
<http://www.example.org/datasets/ADSL/01-701-1028> <http://www.example.org/datasets/vocab/ADSL_DISCONFL> "" .
<http://www.example.org/datasets/ADSL/01-701-1028> <http://www.example.org/datasets/vocab/ADSL_DSRAEFL> "" .
<http://www.example.org/datasets/ADSL/01-701-1028> <http://www.example.org/datasets/vocab/ADSL_MMSETOT> "23.0E0"^^<http://www.w3.org/2001/XMLSchema#double> .
<http://www.example.org/datasets/ADSL/01-701-1028> <http://www.example.org/datasets/vocab/ADSL_DCDECOD> "COMPLETED" .
<http://www.example.org/datasets/ADSL/01-701-1028> <http://www.example.org/datasets/vocab/ADSL_RFENDTC> "2014-01-14" .
<http://www.example.org/datasets/ADSL/01-701-1028> <http://www.example.org/datasets/vocab/ADSL_DISONSDT> "18247.0E0"^^<http://www.w3.org/2001/XMLSchema#double> .
<http://www.example.org/datasets/ADSL/01-701-1028> <http://www.example.org/datasets/vocab/ADSL_AGEGR1> "65-80" .
<http://www.example.org/datasets/ADSL/01-701-1028> <http://www.example.org/datasets/vocab/ADSL_VISIT1DT> "19550.0E0"^^<http://www.w3.org/2001/XMLSchema#double> .
<http://www.example.org/datasets/ADSL/01-701-1028> <http://www.example.org/datasets/vocab/ADSL_COMP8FL> "Y" .
<http://www.example.org/datasets/ADSL/01-701-1028> <http://www.example.org/datasets/vocab/ADSL_SUBJID> "1028" .
<http://www.example.org/datasets/ADSL/01-701-1028> <http://www.w3.org/1999/02/22-rdf-syntax-ns#type> <http://www.example.org/datasets/vocab/ADSL> .
<http://www.example.org/datasets/ADSL/01-701-1033> <http://www.example.org/datasets/vocab/ADSL_TRTSDT> "19800.0E0"^^<http://www.w3.org/2001/XMLSchema#double> .
<http://www.example.org/datasets/ADSL/01-701-1033> <http://www.example.org/datasets/vocab/ADSL_SAFFL> "Y" .
<http://www.example.org/datasets/ADSL/01-701-1033> <http://www.example.org/datasets/vocab/ADSL_TRTEDT> "19813.0E0"^^<http://www.w3.org/2001/XMLSchema#double> .
<http://www.example.org/datasets/ADSL/01-701-1033> <http://www.example.org/datasets/vocab/ADSL_DTHFL> "" .
<http://www.example.org/datasets/ADSL/01-701-1033> <http://www.example.org/datasets/vocab/ADSL_AGE> "74.0E0"^^<http://www.w3.org/2001/XMLSchema#double> .
<http://www.example.org/datasets/ADSL/01-701-1033> <http://www.example.org/datasets/vocab/ADSL_RFSTDTC> "2014-03-18" .
<http://www.example.org/datasets/ADSL/01-701-1033> <http://www.example.org/datasets/vocab/ADSL_SEX> "M" .
<http://www.example.org/datasets/ADSL/01-701-1033> <http://www.example.org/datasets/vocab/ADSL_DURDSGR1> ">=12" .
<http://www.example.org/datasets/ADSL/01-701-1033> <http://www.example.org/datasets/vocab/ADSL_TRTDUR> "14.0E0"^^<http://www.w3.org/2001/XMLSchema#double> .
<http://www.example.org/datasets/ADSL/01-701-1033> <http://www.example.org/datasets/vocab/ADSL_USUBJID> "01-701-1033" .
<http://www.example.org/datasets/ADSL/01-701-1033> <http://www.example.org/datasets/vocab/ADSL_TRT01A> "Xanomeline Low Dose" .
<http://www.example.org/datasets/ADSL/01-701-1033> <http://www.example.org/datasets/vocab/ADSL_HEIGHTBL> "175.3E0"^^<http://www.w3.org/2001/XMLSchema#double> .
<http://www.example.org/datasets/ADSL/01-701-1033> <http://www.example.org/datasets/vocab/ADSL_ETHNIC> "NOT HISPANIC OR LATINO" .
<http://www.example.org/datasets/ADSL/01-701-1033> <http://www.example.org/datasets/vocab/ADSL_RACE> "WHITE" .
<http://www.example.org/datasets/ADSL/01-701-1033> <http://www.example.org/datasets/vocab/ADSL_TRT01AN> "54.0E0"^^<http://www.w3.org/2001/XMLSchema#double> .
<http://www.example.org/datasets/ADSL/01-701-1033> <http://www.example.org/datasets/vocab/ADSL_SITEGR1> "701" .
<http://www.example.org/datasets/ADSL/01-701-1033> <http://www.example.org/datasets/vocab/ADSL_TRT01PN> "54.0E0"^^<http://www.w3.org/2001/XMLSchema#double> .
<http://www.example.org/datasets/ADSL/01-701-1033> <http://www.example.org/datasets/vocab/ADSL_VISNUMEN> "5.0E0"^^<http://www.w3.org/2001/XMLSchema#double> .
<http://www.example.org/datasets/ADSL/01-701-1033> <http://www.example.org/datasets/vocab/ADSL_AGEU> "YEARS" .
<http://www.example.org/datasets/ADSL/01-701-1033> <http://www.example.org/datasets/vocab/ADSL_COMP16FL> "N" .
<http://www.example.org/datasets/ADSL/01-701-1033> <http://www.example.org/datasets/vocab/ADSL_AVGDD> "54.0E0"^^<http://www.w3.org/2001/XMLSchema#double> .
<http://www.example.org/datasets/ADSL/01-701-1033> <http://www.example.org/datasets/vocab/ADSL_SITEID> "701" .
<http://www.example.org/datasets/ADSL/01-701-1033> <http://www.example.org/datasets/vocab/ADSL_WEIGHTBL> "88.5E0"^^<http://www.w3.org/2001/XMLSchema#double> .
<http://www.example.org/datasets/ADSL/01-701-1033> <http://www.example.org/datasets/vocab/ADSL_COMP24FL> "N" .
<http://www.example.org/datasets/ADSL/01-701-1033> <http://www.example.org/datasets/vocab/ADSL_DURDIS> "55.3E0"^^<http://www.w3.org/2001/XMLSchema#double> .
<http://www.example.org/datasets/ADSL/01-701-1033> <http://www.example.org/datasets/vocab/ADSL_RACEN> "1.0E0"^^<http://www.w3.org/2001/XMLSchema#double> .
<http://www.example.org/datasets/ADSL/01-701-1033> <http://www.example.org/datasets/vocab/ADSL_ITTFL> "Y" .
<http://www.example.org/datasets/ADSL/01-701-1033> <http://www.example.org/datasets/vocab/ADSL_STUDYID> "CDISCPILOT01" .
<http://www.example.org/datasets/ADSL/01-701-1033> <http://www.example.org/datasets/vocab/ADSL_BMIBLGR1> "25-<30" .
<http://www.example.org/datasets/ADSL/01-701-1033> <http://www.example.org/datasets/vocab/ADSL_TRT01P> "Xanomeline Low Dose" .
<http://www.example.org/datasets/ADSL/01-701-1033> <http://www.example.org/datasets/vocab/ADSL_EDUCLVL> "12.0E0"^^<http://www.w3.org/2001/XMLSchema#double> .
<http://www.example.org/datasets/ADSL/01-701-1033> <http://www.example.org/datasets/vocab/ADSL_EFFFL> "Y" .
<http://www.example.org/datasets/ADSL/01-701-1033> <http://www.example.org/datasets/vocab/ADSL_ARM> "Xanomeline Low Dose" .
<http://www.example.org/datasets/ADSL/01-701-1033> <http://www.w3.org/2000/01/rdf-schema#label> "ADSL #01-701-1033" .
<http://www.example.org/datasets/ADSL/01-701-1033> <http://www.example.org/datasets/vocab/ADSL_AGEGR1N> "2.0E0"^^<http://www.w3.org/2001/XMLSchema#double> .
<http://www.example.org/datasets/ADSL/01-701-1033> <http://www.example.org/datasets/vocab/ADSL_RFENDT> "19827.0E0"^^<http://www.w3.org/2001/XMLSchema#double> .
<http://www.example.org/datasets/ADSL/01-701-1033> <http://www.example.org/datasets/vocab/ADSL_CUMDOSE> "756.0E0"^^<http://www.w3.org/2001/XMLSchema#double> .
<http://www.example.org/datasets/ADSL/01-701-1033> <http://www.example.org/datasets/vocab/ADSL_DCREASCD> "Sponsor Decision" .
<http://www.example.org/datasets/ADSL/01-701-1033> <http://www.example.org/datasets/vocab/ADSL_BMIBL> "28.8E0"^^<http://www.w3.org/2001/XMLSchema#double> .
<http://www.example.org/datasets/ADSL/01-701-1033> <http://www.example.org/datasets/vocab/ADSL_DISCONFL> "Y" .
<http://www.example.org/datasets/ADSL/01-701-1033> <http://www.example.org/datasets/vocab/ADSL_DSRAEFL> "" .
<http://www.example.org/datasets/ADSL/01-701-1033> <http://www.example.org/datasets/vocab/ADSL_MMSETOT> "23.0E0"^^<http://www.w3.org/2001/XMLSchema#double> .
<http://www.example.org/datasets/ADSL/01-701-1033> <http://www.example.org/datasets/vocab/ADSL_DCDECOD> "STUDY TERMINATED BY SPONSOR" .
<http://www.example.org/datasets/ADSL/01-701-1033> <http://www.example.org/datasets/vocab/ADSL_RFENDTC> "2014-04-14" .
<http://www.example.org/datasets/ADSL/01-701-1033> <http://www.example.org/datasets/vocab/ADSL_DISONSDT> "18111.0E0"^^<http://www.w3.org/2001/XMLSchema#double> .
<http://www.example.org/datasets/ADSL/01-701-1033> <http://www.example.org/datasets/vocab/ADSL_AGEGR1> "65-80" .
<http://www.example.org/datasets/ADSL/01-701-1033> <http://www.example.org/datasets/vocab/ADSL_VISIT1DT> "19792.0E0"^^<http://www.w3.org/2001/XMLSchema#double> .
<http://www.example.org/datasets/ADSL/01-701-1033> <http://www.example.org/datasets/vocab/ADSL_COMP8FL> "N" .
<http://www.example.org/datasets/ADSL/01-701-1033> <http://www.example.org/datasets/vocab/ADSL_SUBJID> "1033" .
<http://www.example.org/datasets/ADSL/01-701-1033> <http://www.w3.org/1999/02/22-rdf-syntax-ns#type> <http://www.example.org/datasets/vocab/ADSL> .
<http://www.example.org/datasets/ADSL/01-701-1034> <http://www.example.org/datasets/vocab/ADSL_TRTSDT> "19905.0E0"^^<http://www.w3.org/2001/XMLSchema#double> .
<http://www.example.org/datasets/ADSL/01-701-1034> <http://www.example.org/datasets/vocab/ADSL_SAFFL> "Y" .
<http://www.example.org/datasets/ADSL/01-701-1034> <http://www.example.org/datasets/vocab/ADSL_TRTEDT> "20087.0E0"^^<http://www.w3.org/2001/XMLSchema#double> .
<http://www.example.org/datasets/ADSL/01-701-1034> <http://www.example.org/datasets/vocab/ADSL_DTHFL> "" .
<http://www.example.org/datasets/ADSL/01-701-1034> <http://www.example.org/datasets/vocab/ADSL_AGE> "77.0E0"^^<http://www.w3.org/2001/XMLSchema#double> .
<http://www.example.org/datasets/ADSL/01-701-1034> <http://www.example.org/datasets/vocab/ADSL_RFSTDTC> "2014-07-01" .
<http://www.example.org/datasets/ADSL/01-701-1034> <http://www.example.org/datasets/vocab/ADSL_SEX> "F" .
<http://www.example.org/datasets/ADSL/01-701-1034> <http://www.example.org/datasets/vocab/ADSL_DURDSGR1> ">=12" .
<http://www.example.org/datasets/ADSL/01-701-1034> <http://www.example.org/datasets/vocab/ADSL_TRTDUR> "183.0E0"^^<http://www.w3.org/2001/XMLSchema#double> .
<http://www.example.org/datasets/ADSL/01-701-1034> <http://www.example.org/datasets/vocab/ADSL_USUBJID> "01-701-1034" .
<http://www.example.org/datasets/ADSL/01-701-1034> <http://www.example.org/datasets/vocab/ADSL_TRT01A> "Xanomeline High Dose" .
<http://www.example.org/datasets/ADSL/01-701-1034> <http://www.example.org/datasets/vocab/ADSL_HEIGHTBL> "154.9E0"^^<http://www.w3.org/2001/XMLSchema#double> .
<http://www.example.org/datasets/ADSL/01-701-1034> <http://www.example.org/datasets/vocab/ADSL_ETHNIC> "NOT HISPANIC OR LATINO" .
<http://www.example.org/datasets/ADSL/01-701-1034> <http://www.example.org/datasets/vocab/ADSL_RACE> "WHITE" .
<http://www.example.org/datasets/ADSL/01-701-1034> <http://www.example.org/datasets/vocab/ADSL_TRT01AN> "81.0E0"^^<http://www.w3.org/2001/XMLSchema#double> .
<http://www.example.org/datasets/ADSL/01-701-1034> <http://www.example.org/datasets/vocab/ADSL_SITEGR1> "701" .
<http://www.example.org/datasets/ADSL/01-701-1034> <http://www.example.org/datasets/vocab/ADSL_TRT01PN> "81.0E0"^^<http://www.w3.org/2001/XMLSchema#double> .
<http://www.example.org/datasets/ADSL/01-701-1034> <http://www.example.org/datasets/vocab/ADSL_VISNUMEN> "12.0E0"^^<http://www.w3.org/2001/XMLSchema#double> .
<http://www.example.org/datasets/ADSL/01-701-1034> <http://www.example.org/datasets/vocab/ADSL_AGEU> "YEARS" .
<http://www.example.org/datasets/ADSL/01-701-1034> <http://www.example.org/datasets/vocab/ADSL_COMP16FL> "Y" .
<http://www.example.org/datasets/ADSL/01-701-1034> <http://www.example.org/datasets/vocab/ADSL_AVGDD> "76.9E0"^^<http://www.w3.org/2001/XMLSchema#double> .
<http://www.example.org/datasets/ADSL/01-701-1034> <http://www.example.org/datasets/vocab/ADSL_SITEID> "701" .
<http://www.example.org/datasets/ADSL/01-701-1034> <http://www.example.org/datasets/vocab/ADSL_WEIGHTBL> "62.6E0"^^<http://www.w3.org/2001/XMLSchema#double> .
<http://www.example.org/datasets/ADSL/01-701-1034> <http://www.example.org/datasets/vocab/ADSL_COMP24FL> "Y" .
<http://www.example.org/datasets/ADSL/01-701-1034> <http://www.example.org/datasets/vocab/ADSL_DURDIS> "32.9E0"^^<http://www.w3.org/2001/XMLSchema#double> .
<http://www.example.org/datasets/ADSL/01-701-1034> <http://www.example.org/datasets/vocab/ADSL_RACEN> "1.0E0"^^<http://www.w3.org/2001/XMLSchema#double> .
<http://www.example.org/datasets/ADSL/01-701-1034> <http://www.example.org/datasets/vocab/ADSL_ITTFL> "Y" .
<http://www.example.org/datasets/ADSL/01-701-1034> <http://www.example.org/datasets/vocab/ADSL_STUDYID> "CDISCPILOT01" .
<http://www.example.org/datasets/ADSL/01-701-1034> <http://www.example.org/datasets/vocab/ADSL_BMIBLGR1> "25-<30" .
<http://www.example.org/datasets/ADSL/01-701-1034> <http://www.example.org/datasets/vocab/ADSL_TRT01P> "Xanomeline High Dose" .
<http://www.example.org/datasets/ADSL/01-701-1034> <http://www.example.org/datasets/vocab/ADSL_EDUCLVL> "9.0E0"^^<http://www.w3.org/2001/XMLSchema#double> .
<http://www.example.org/datasets/ADSL/01-701-1034> <http://www.example.org/datasets/vocab/ADSL_EFFFL> "Y" .
<http://www.example.org/datasets/ADSL/01-701-1034> <http://www.example.org/datasets/vocab/ADSL_ARM> "Xanomeline High Dose" .
<http://www.example.org/datasets/ADSL/01-701-1034> <http://www.w3.org/2000/01/rdf-schema#label> "ADSL #01-701-1034" .
<http://www.example.org/datasets/ADSL/01-701-1034> <http://www.example.org/datasets/vocab/ADSL_AGEGR1N> "2.0E0"^^<http://www.w3.org/2001/XMLSchema#double> .
<http://www.example.org/datasets/ADSL/01-701-1034> <http://www.example.org/datasets/vocab/ADSL_RFENDT> "20087.0E0"^^<http://www.w3.org/2001/XMLSchema#double> .
<http://www.example.org/datasets/ADSL/01-701-1034> <http://www.example.org/datasets/vocab/ADSL_CUMDOSE> "14067.0E0"^^<http://www.w3.org/2001/XMLSchema#double> .
<http://www.example.org/datasets/ADSL/01-701-1034> <http://www.example.org/datasets/vocab/ADSL_DCREASCD> "Completed" .
<http://www.example.org/datasets/ADSL/01-701-1034> <http://www.example.org/datasets/vocab/ADSL_BMIBL> "26.1E0"^^<http://www.w3.org/2001/XMLSchema#double> .
<http://www.example.org/datasets/ADSL/01-701-1034> <http://www.example.org/datasets/vocab/ADSL_DISCONFL> "" .
<http://www.example.org/datasets/ADSL/01-701-1034> <http://www.example.org/datasets/vocab/ADSL_DSRAEFL> "" .
<http://www.example.org/datasets/ADSL/01-701-1034> <http://www.example.org/datasets/vocab/ADSL_MMSETOT> "21.0E0"^^<http://www.w3.org/2001/XMLSchema#double> .
<http://www.example.org/datasets/ADSL/01-701-1034> <http://www.example.org/datasets/vocab/ADSL_DCDECOD> "COMPLETED" .
<http://www.example.org/datasets/ADSL/01-701-1034> <http://www.example.org/datasets/vocab/ADSL_RFENDTC> "2014-12-30" .
<http://www.example.org/datasets/ADSL/01-701-1034> <http://www.example.org/datasets/vocab/ADSL_DISONSDT> "18899.0E0"^^<http://www.w3.org/2001/XMLSchema#double> .
<http://www.example.org/datasets/ADSL/01-701-1034> <http://www.example.org/datasets/vocab/ADSL_AGEGR1> "65-80" .
<http://www.example.org/datasets/ADSL/01-701-1034> <http://www.example.org/datasets/vocab/ADSL_VISIT1DT> "19898.0E0"^^<http://www.w3.org/2001/XMLSchema#double> .
<http://www.example.org/datasets/ADSL/01-701-1034> <http://www.example.org/datasets/vocab/ADSL_COMP8FL> "Y" .
<http://www.example.org/datasets/ADSL/01-701-1034> <http://www.example.org/datasets/vocab/ADSL_SUBJID> "1034" .
<http://www.example.org/datasets/ADSL/01-701-1034> <http://www.w3.org/1999/02/22-rdf-syntax-ns#type> <http://www.example.org/datasets/vocab/ADSL> .
<http://www.example.org/datasets/ADSL/01-701-1047> <http://www.example.org/datasets/vocab/ADSL_TRTSDT> "19401.0E0"^^<http://www.w3.org/2001/XMLSchema#double> .
<http://www.example.org/datasets/ADSL/01-701-1047> <http://www.example.org/datasets/vocab/ADSL_SAFFL> "Y" .
<http://www.example.org/datasets/ADSL/01-701-1047> <http://www.example.org/datasets/vocab/ADSL_TRTEDT> "19426.0E0"^^<http://www.w3.org/2001/XMLSchema#double> .
<http://www.example.org/datasets/ADSL/01-701-1047> <http://www.example.org/datasets/vocab/ADSL_DTHFL> "" .
<http://www.example.org/datasets/ADSL/01-701-1047> <http://www.example.org/datasets/vocab/ADSL_AGE> "85.0E0"^^<http://www.w3.org/2001/XMLSchema#double> .
<http://www.example.org/datasets/ADSL/01-701-1047> <http://www.example.org/datasets/vocab/ADSL_RFSTDTC> "2013-02-12" .
<http://www.example.org/datasets/ADSL/01-701-1047> <http://www.example.org/datasets/vocab/ADSL_SEX> "F" .
<http://www.example.org/datasets/ADSL/01-701-1047> <http://www.example.org/datasets/vocab/ADSL_DURDSGR1> ">=12" .
<http://www.example.org/datasets/ADSL/01-701-1047> <http://www.example.org/datasets/vocab/ADSL_TRTDUR> "26.0E0"^^<http://www.w3.org/2001/XMLSchema#double> .
<http://www.example.org/datasets/ADSL/01-701-1047> <http://www.example.org/datasets/vocab/ADSL_USUBJID> "01-701-1047" .
<http://www.example.org/datasets/ADSL/01-701-1047> <http://www.example.org/datasets/vocab/ADSL_TRT01A> "Placebo" .
<http://www.example.org/datasets/ADSL/01-701-1047> <http://www.example.org/datasets/vocab/ADSL_HEIGHTBL> "148.6E0"^^<http://www.w3.org/2001/XMLSchema#double> .
<http://www.example.org/datasets/ADSL/01-701-1047> <http://www.example.org/datasets/vocab/ADSL_ETHNIC> "NOT HISPANIC OR LATINO" .
<http://www.example.org/datasets/ADSL/01-701-1047> <http://www.example.org/datasets/vocab/ADSL_RACE> "WHITE" .
<http://www.example.org/datasets/ADSL/01-701-1047> <http://www.example.org/datasets/vocab/ADSL_TRT01AN> "0.0E0"^^<http://www.w3.org/2001/XMLSchema#double> .
<http://www.example.org/datasets/ADSL/01-701-1047> <http://www.example.org/datasets/vocab/ADSL_SITEGR1> "701" .
<http://www.example.org/datasets/ADSL/01-701-1047> <http://www.example.org/datasets/vocab/ADSL_TRT01PN> "0.0E0"^^<http://www.w3.org/2001/XMLSchema#double> .
<http://www.example.org/datasets/ADSL/01-701-1047> <http://www.example.org/datasets/vocab/ADSL_VISNUMEN> "6.0E0"^^<http://www.w3.org/2001/XMLSchema#double> .
<http://www.example.org/datasets/ADSL/01-701-1047> <http://www.example.org/datasets/vocab/ADSL_AGEU> "YEARS" .
<http://www.example.org/datasets/ADSL/01-701-1047> <http://www.example.org/datasets/vocab/ADSL_COMP16FL> "N" .
<http://www.example.org/datasets/ADSL/01-701-1047> <http://www.example.org/datasets/vocab/ADSL_AVGDD> "0.0E0"^^<http://www.w3.org/2001/XMLSchema#double> .
<http://www.example.org/datasets/ADSL/01-701-1047> <http://www.example.org/datasets/vocab/ADSL_SITEID> "701" .
<http://www.example.org/datasets/ADSL/01-701-1047> <http://www.example.org/datasets/vocab/ADSL_WEIGHTBL> "67.1E0"^^<http://www.w3.org/2001/XMLSchema#double> .
<http://www.example.org/datasets/ADSL/01-701-1047> <http://www.example.org/datasets/vocab/ADSL_COMP24FL> "N" .
<http://www.example.org/datasets/ADSL/01-701-1047> <http://www.example.org/datasets/vocab/ADSL_DURDIS> "42.0E0"^^<http://www.w3.org/2001/XMLSchema#double> .
<http://www.example.org/datasets/ADSL/01-701-1047> <http://www.example.org/datasets/vocab/ADSL_RACEN> "1.0E0"^^<http://www.w3.org/2001/XMLSchema#double> .
<http://www.example.org/datasets/ADSL/01-701-1047> <http://www.example.org/datasets/vocab/ADSL_ITTFL> "Y" .
<http://www.example.org/datasets/ADSL/01-701-1047> <http://www.example.org/datasets/vocab/ADSL_STUDYID> "CDISCPILOT01" .
<http://www.example.org/datasets/ADSL/01-701-1047> <http://www.example.org/datasets/vocab/ADSL_BMIBLGR1> ">=30" .
<http://www.example.org/datasets/ADSL/01-701-1047> <http://www.example.org/datasets/vocab/ADSL_TRT01P> "Placebo" .
<http://www.example.org/datasets/ADSL/01-701-1047> <http://www.example.org/datasets/vocab/ADSL_EDUCLVL> "8.0E0"^^<http://www.w3.org/2001/XMLSchema#double> .
<http://www.example.org/datasets/ADSL/01-701-1047> <http://www.example.org/datasets/vocab/ADSL_EFFFL> "Y" .
<http://www.example.org/datasets/ADSL/01-701-1047> <http://www.example.org/datasets/vocab/ADSL_ARM> "Placebo" .
<http://www.example.org/datasets/ADSL/01-701-1047> <http://www.w3.org/2000/01/rdf-schema#label> "ADSL #01-701-1047" .
<http://www.example.org/datasets/ADSL/01-701-1047> <http://www.example.org/datasets/vocab/ADSL_AGEGR1N> "3.0E0"^^<http://www.w3.org/2001/XMLSchema#double> .
<http://www.example.org/datasets/ADSL/01-701-1047> <http://www.example.org/datasets/vocab/ADSL_RFENDT> "19446.0E0"^^<http://www.w3.org/2001/XMLSchema#double> .
<http://www.example.org/datasets/ADSL/01-701-1047> <http://www.example.org/datasets/vocab/ADSL_CUMDOSE> "0.0E0"^^<http://www.w3.org/2001/XMLSchema#double> .
<http://www.example.org/datasets/ADSL/01-701-1047> <http://www.example.org/datasets/vocab/ADSL_DCREASCD> "Adverse Event" .
<http://www.example.org/datasets/ADSL/01-701-1047> <http://www.example.org/datasets/vocab/ADSL_BMIBL> "30.4E0"^^<http://www.w3.org/2001/XMLSchema#double> .
<http://www.example.org/datasets/ADSL/01-701-1047> <http://www.example.org/datasets/vocab/ADSL_DISCONFL> "Y" .
<http://www.example.org/datasets/ADSL/01-701-1047> <http://www.example.org/datasets/vocab/ADSL_DSRAEFL> "Y" .
<http://www.example.org/datasets/ADSL/01-701-1047> <http://www.example.org/datasets/vocab/ADSL_MMSETOT> "23.0E0"^^<http://www.w3.org/2001/XMLSchema#double> .
<http://www.example.org/datasets/ADSL/01-701-1047> <http://www.example.org/datasets/vocab/ADSL_DCDECOD> "ADVERSE EVENT" .
<http://www.example.org/datasets/ADSL/01-701-1047> <http://www.example.org/datasets/vocab/ADSL_RFENDTC> "2013-03-29" .
<http://www.example.org/datasets/ADSL/01-701-1047> <http://www.example.org/datasets/vocab/ADSL_DISONSDT> "18104.0E0"^^<http://www.w3.org/2001/XMLSchema#double> .
<http://www.example.org/datasets/ADSL/01-701-1047> <http://www.example.org/datasets/vocab/ADSL_AGEGR1> ">80" .
<http://www.example.org/datasets/ADSL/01-701-1047> <http://www.example.org/datasets/vocab/ADSL_VISIT1DT> "19380.0E0"^^<http://www.w3.org/2001/XMLSchema#double> .
<http://www.example.org/datasets/ADSL/01-701-1047> <http://www.example.org/datasets/vocab/ADSL_COMP8FL> "N" .
<http://www.example.org/datasets/ADSL/01-701-1047> <http://www.example.org/datasets/vocab/ADSL_SUBJID> "1047" .
<http://www.example.org/datasets/ADSL/01-701-1047> <http://www.w3.org/1999/02/22-rdf-syntax-ns#type> <http://www.example.org/datasets/vocab/ADSL> .
<http://www.example.org/datasets/ADSL/01-701-1097> <http://www.example.org/datasets/vocab/ADSL_TRTSDT> "19724.0E0"^^<http://www.w3.org/2001/XMLSchema#double> .
<http://www.example.org/datasets/ADSL/01-701-1097> <http://www.example.org/datasets/vocab/ADSL_SAFFL> "Y" .
<http://www.example.org/datasets/ADSL/01-701-1097> <http://www.example.org/datasets/vocab/ADSL_TRTEDT> "19913.0E0"^^<http://www.w3.org/2001/XMLSchema#double> .
<http://www.example.org/datasets/ADSL/01-701-1097> <http://www.example.org/datasets/vocab/ADSL_DTHFL> "" .
<http://www.example.org/datasets/ADSL/01-701-1097> <http://www.example.org/datasets/vocab/ADSL_AGE> "68.0E0"^^<http://www.w3.org/2001/XMLSchema#double> .
<http://www.example.org/datasets/ADSL/01-701-1097> <http://www.example.org/datasets/vocab/ADSL_RFSTDTC> "2014-01-01" .
<http://www.example.org/datasets/ADSL/01-701-1097> <http://www.example.org/datasets/vocab/ADSL_SEX> "M" .
<http://www.example.org/datasets/ADSL/01-701-1097> <http://www.example.org/datasets/vocab/ADSL_DURDSGR1> ">=12" .
<http://www.example.org/datasets/ADSL/01-701-1097> <http://www.example.org/datasets/vocab/ADSL_TRTDUR> "190.0E0"^^<http://www.w3.org/2001/XMLSchema#double> .
<http://www.example.org/datasets/ADSL/01-701-1097> <http://www.example.org/datasets/vocab/ADSL_USUBJID> "01-701-1097" .
<http://www.example.org/datasets/ADSL/01-701-1097> <http://www.example.org/datasets/vocab/ADSL_TRT01A> "Xanomeline Low Dose" .
<http://www.example.org/datasets/ADSL/01-701-1097> <http://www.example.org/datasets/vocab/ADSL_HEIGHTBL> "168.9E0"^^<http://www.w3.org/2001/XMLSchema#double> .
<http://www.example.org/datasets/ADSL/01-701-1097> <http://www.example.org/datasets/vocab/ADSL_ETHNIC> "NOT HISPANIC OR LATINO" .
<http://www.example.org/datasets/ADSL/01-701-1097> <http://www.example.org/datasets/vocab/ADSL_RACE> "WHITE" .
<http://www.example.org/datasets/ADSL/01-701-1097> <http://www.example.org/datasets/vocab/ADSL_TRT01AN> "54.0E0"^^<http://www.w3.org/2001/XMLSchema#double> .
<http://www.example.org/datasets/ADSL/01-701-1097> <http://www.example.org/datasets/vocab/ADSL_SITEGR1> "701" .
<http://www.example.org/datasets/ADSL/01-701-1097> <http://www.example.org/datasets/vocab/ADSL_TRT01PN> "54.0E0"^^<http://www.w3.org/2001/XMLSchema#double> .
<http://www.example.org/datasets/ADSL/01-701-1097> <http://www.example.org/datasets/vocab/ADSL_VISNUMEN> "12.0E0"^^<http://www.w3.org/2001/XMLSchema#double> .
<http://www.example.org/datasets/ADSL/01-701-1097> <http://www.example.org/datasets/vocab/ADSL_AGEU> "YEARS" .
<http://www.example.org/datasets/ADSL/01-701-1097> <http://www.example.org/datasets/vocab/ADSL_COMP16FL> "Y" .
<http://www.example.org/datasets/ADSL/01-701-1097> <http://www.example.org/datasets/vocab/ADSL_AVGDD> "54.0E0"^^<http://www.w3.org/2001/XMLSchema#double> .
<http://www.example.org/datasets/ADSL/01-701-1097> <http://www.example.org/datasets/vocab/ADSL_SITEID> "701" .
<http://www.example.org/datasets/ADSL/01-701-1097> <http://www.example.org/datasets/vocab/ADSL_WEIGHTBL> "78.0E0"^^<http://www.w3.org/2001/XMLSchema#double> .
<http://www.example.org/datasets/ADSL/01-701-1097> <http://www.example.org/datasets/vocab/ADSL_COMP24FL> "Y" .
<http://www.example.org/datasets/ADSL/01-701-1097> <http://www.example.org/datasets/vocab/ADSL_DURDIS> "99.1E0"^^<http://www.w3.org/2001/XMLSchema#double> .
<http://www.example.org/datasets/ADSL/01-701-1097> <http://www.example.org/datasets/vocab/ADSL_RACEN> "1.0E0"^^<http://www.w3.org/2001/XMLSchema#double> .
<http://www.example.org/datasets/ADSL/01-701-1097> <http://www.example.org/datasets/vocab/ADSL_ITTFL> "Y" .
<http://www.example.org/datasets/ADSL/01-701-1097> <http://www.example.org/datasets/vocab/ADSL_STUDYID> "CDISCPILOT01" .
<http://www.example.org/datasets/ADSL/01-701-1097> <http://www.example.org/datasets/vocab/ADSL_BMIBLGR1> "25-<30" .
<http://www.example.org/datasets/ADSL/01-701-1097> <http://www.example.org/datasets/vocab/ADSL_TRT01P> "Xanomeline Low Dose" .
<http://www.example.org/datasets/ADSL/01-701-1097> <http://www.example.org/datasets/vocab/ADSL_EDUCLVL> "18.0E0"^^<http://www.w3.org/2001/XMLSchema#double> .
<http://www.example.org/datasets/ADSL/01-701-1097> <http://www.example.org/datasets/vocab/ADSL_EFFFL> "Y" .
<http://www.example.org/datasets/ADSL/01-701-1097> <http://www.example.org/datasets/vocab/ADSL_ARM> "Xanomeline Low Dose" .
<http://www.example.org/datasets/ADSL/01-701-1097> <http://www.w3.org/2000/01/rdf-schema#label> "ADSL #01-701-1097" .
<http://www.example.org/datasets/ADSL/01-701-1097> <http://www.example.org/datasets/vocab/ADSL_AGEGR1N> "2.0E0"^^<http://www.w3.org/2001/XMLSchema#double> .
<http://www.example.org/datasets/ADSL/01-701-1097> <http://www.example.org/datasets/vocab/ADSL_RFENDT> "19913.0E0"^^<http://www.w3.org/2001/XMLSchema#double> .
<http://www.example.org/datasets/ADSL/01-701-1097> <http://www.example.org/datasets/vocab/ADSL_CUMDOSE> "10260.0E0"^^<http://www.w3.org/2001/XMLSchema#double> .
<http://www.example.org/datasets/ADSL/01-701-1097> <http://www.example.org/datasets/vocab/ADSL_DCREASCD> "Completed" .
<http://www.example.org/datasets/ADSL/01-701-1097> <http://www.example.org/datasets/vocab/ADSL_BMIBL> "27.3E0"^^<http://www.w3.org/2001/XMLSchema#double> .
<http://www.example.org/datasets/ADSL/01-701-1097> <http://www.example.org/datasets/vocab/ADSL_DISCONFL> "" .
<http://www.example.org/datasets/ADSL/01-701-1097> <http://www.example.org/datasets/vocab/ADSL_DSRAEFL> "" .
<http://www.example.org/datasets/ADSL/01-701-1097> <http://www.example.org/datasets/vocab/ADSL_MMSETOT> "10.0E0"^^<http://www.w3.org/2001/XMLSchema#double> .
<http://www.example.org/datasets/ADSL/01-701-1097> <http://www.example.org/datasets/vocab/ADSL_DCDECOD> "COMPLETED" .
<http://www.example.org/datasets/ADSL/01-701-1097> <http://www.example.org/datasets/vocab/ADSL_RFENDTC> "2014-07-09" .
<http://www.example.org/datasets/ADSL/01-701-1097> <http://www.example.org/datasets/vocab/ADSL_DISONSDT> "16701.0E0"^^<http://www.w3.org/2001/XMLSchema#double> .
<http://www.example.org/datasets/ADSL/01-701-1097> <http://www.example.org/datasets/vocab/ADSL_AGEGR1> "65-80" .
<http://www.example.org/datasets/ADSL/01-701-1097> <http://www.example.org/datasets/vocab/ADSL_VISIT1DT> "19715.0E0"^^<http://www.w3.org/2001/XMLSchema#double> .
<http://www.example.org/datasets/ADSL/01-701-1097> <http://www.example.org/datasets/vocab/ADSL_COMP8FL> "Y" .
<http://www.example.org/datasets/ADSL/01-701-1097> <http://www.example.org/datasets/vocab/ADSL_SUBJID> "1097" .
<http://www.example.org/datasets/ADSL/01-701-1097> <http://www.w3.org/1999/02/22-rdf-syntax-ns#type> <http://www.example.org/datasets/vocab/ADSL> .
<http://www.example.org/datasets/ADSL/01-701-1111> <http://www.example.org/datasets/vocab/ADSL_TRTSDT> "19243.0E0"^^<http://www.w3.org/2001/XMLSchema#double> .
<http://www.example.org/datasets/ADSL/01-701-1111> <http://www.example.org/datasets/vocab/ADSL_SAFFL> "Y" .
<http://www.example.org/datasets/ADSL/01-701-1111> <http://www.example.org/datasets/vocab/ADSL_TRTEDT> "19252.0E0"^^<http://www.w3.org/2001/XMLSchema#double> .
<http://www.example.org/datasets/ADSL/01-701-1111> <http://www.example.org/datasets/vocab/ADSL_DTHFL> "" .
<http://www.example.org/datasets/ADSL/01-701-1111> <http://www.example.org/datasets/vocab/ADSL_AGE> "81.0E0"^^<http://www.w3.org/2001/XMLSchema#double> .
<http://www.example.org/datasets/ADSL/01-701-1111> <http://www.example.org/datasets/vocab/ADSL_RFSTDTC> "2012-09-07" .
<http://www.example.org/datasets/ADSL/01-701-1111> <http://www.example.org/datasets/vocab/ADSL_SEX> "F" .
<http://www.example.org/datasets/ADSL/01-701-1111> <http://www.example.org/datasets/vocab/ADSL_DURDSGR1> ">=12" .
<http://www.example.org/datasets/ADSL/01-701-1111> <http://www.example.org/datasets/vocab/ADSL_TRTDUR> "10.0E0"^^<http://www.w3.org/2001/XMLSchema#double> .
<http://www.example.org/datasets/ADSL/01-701-1111> <http://www.example.org/datasets/vocab/ADSL_USUBJID> "01-701-1111" .
<http://www.example.org/datasets/ADSL/01-701-1111> <http://www.example.org/datasets/vocab/ADSL_TRT01A> "Xanomeline Low Dose" .
<http://www.example.org/datasets/ADSL/01-701-1111> <http://www.example.org/datasets/vocab/ADSL_HEIGHTBL> "158.2E0"^^<http://www.w3.org/2001/XMLSchema#double> .
<http://www.example.org/datasets/ADSL/01-701-1111> <http://www.example.org/datasets/vocab/ADSL_ETHNIC> "NOT HISPANIC OR LATINO" .
<http://www.example.org/datasets/ADSL/01-701-1111> <http://www.example.org/datasets/vocab/ADSL_RACE> "WHITE" .
<http://www.example.org/datasets/ADSL/01-701-1111> <http://www.example.org/datasets/vocab/ADSL_TRT01AN> "54.0E0"^^<http://www.w3.org/2001/XMLSchema#double> .
<http://www.example.org/datasets/ADSL/01-701-1111> <http://www.example.org/datasets/vocab/ADSL_SITEGR1> "701" .
<http://www.example.org/datasets/ADSL/01-701-1111> <http://www.example.org/datasets/vocab/ADSL_TRT01PN> "54.0E0"^^<http://www.w3.org/2001/XMLSchema#double> .
<http://www.example.org/datasets/ADSL/01-701-1111> <http://www.example.org/datasets/vocab/ADSL_VISNUMEN> "4.0E0"^^<http://www.w3.org/2001/XMLSchema#double> .
<http://www.example.org/datasets/ADSL/01-701-1111> <http://www.example.org/datasets/vocab/ADSL_AGEU> "YEARS" .
<http://www.example.org/datasets/ADSL/01-701-1111> <http://www.example.org/datasets/vocab/ADSL_COMP16FL> "N" .
<http://www.example.org/datasets/ADSL/01-701-1111> <http://www.example.org/datasets/vocab/ADSL_AVGDD> "54.0E0"^^<http://www.w3.org/2001/XMLSchema#double> .
<http://www.example.org/datasets/ADSL/01-701-1111> <http://www.example.org/datasets/vocab/ADSL_SITEID> "701" .
<http://www.example.org/datasets/ADSL/01-701-1111> <http://www.example.org/datasets/vocab/ADSL_WEIGHTBL> "59.9E0"^^<http://www.w3.org/2001/XMLSchema#double> .
<http://www.example.org/datasets/ADSL/01-701-1111> <http://www.example.org/datasets/vocab/ADSL_COMP24FL> "N" .
<http://www.example.org/datasets/ADSL/01-701-1111> <http://www.example.org/datasets/vocab/ADSL_DURDIS> "40.7E0"^^<http://www.w3.org/2001/XMLSchema#double> .
<http://www.example.org/datasets/ADSL/01-701-1111> <http://www.example.org/datasets/vocab/ADSL_RACEN> "1.0E0"^^<http://www.w3.org/2001/XMLSchema#double> .
<http://www.example.org/datasets/ADSL/01-701-1111> <http://www.example.org/datasets/vocab/ADSL_ITTFL> "Y" .
<http://www.example.org/datasets/ADSL/01-701-1111> <http://www.example.org/datasets/vocab/ADSL_STUDYID> "CDISCPILOT01" .
<http://www.example.org/datasets/ADSL/01-701-1111> <http://www.example.org/datasets/vocab/ADSL_BMIBLGR1> "<25" .
<http://www.example.org/datasets/ADSL/01-701-1111> <http://www.example.org/datasets/vocab/ADSL_TRT01P> "Xanomeline Low Dose" .
<http://www.example.org/datasets/ADSL/01-701-1111> <http://www.example.org/datasets/vocab/ADSL_EDUCLVL> "22.0E0"^^<http://www.w3.org/2001/XMLSchema#double> .
<http://www.example.org/datasets/ADSL/01-701-1111> <http://www.example.org/datasets/vocab/ADSL_EFFFL> "Y" .
<http://www.example.org/datasets/ADSL/01-701-1111> <http://www.example.org/datasets/vocab/ADSL_ARM> "Xanomeline Low Dose" .
<http://www.example.org/datasets/ADSL/01-701-1111> <http://www.w3.org/2000/01/rdf-schema#label> "ADSL #01-701-1111" .
<http://www.example.org/datasets/ADSL/01-701-1111> <http://www.example.org/datasets/vocab/ADSL_AGEGR1N> "3.0E0"^^<http://www.w3.org/2001/XMLSchema#double> .
<http://www.example.org/datasets/ADSL/01-701-1111> <http://www.example.org/datasets/vocab/ADSL_RFENDT> "19253.0E0"^^<http://www.w3.org/2001/XMLSchema#double> .
<http://www.example.org/datasets/ADSL/01-701-1111> <http://www.example.org/datasets/vocab/ADSL_CUMDOSE> "540.0E0"^^<http://www.w3.org/2001/XMLSchema#double> .
<http://www.example.org/datasets/ADSL/01-701-1111> <http://www.example.org/datasets/vocab/ADSL_DCREASCD> "Adverse Event" .
<http://www.example.org/datasets/ADSL/01-701-1111> <http://www.example.org/datasets/vocab/ADSL_BMIBL> "23.9E0"^^<http://www.w3.org/2001/XMLSchema#double> .
<http://www.example.org/datasets/ADSL/01-701-1111> <http://www.example.org/datasets/vocab/ADSL_DISCONFL> "Y" .
<http://www.example.org/datasets/ADSL/01-701-1111> <http://www.example.org/datasets/vocab/ADSL_DSRAEFL> "Y" .
<http://www.example.org/datasets/ADSL/01-701-1111> <http://www.example.org/datasets/vocab/ADSL_MMSETOT> "23.0E0"^^<http://www.w3.org/2001/XMLSchema#double> .
<http://www.example.org/datasets/ADSL/01-701-1111> <http://www.example.org/datasets/vocab/ADSL_DCDECOD> "ADVERSE EVENT" .
<http://www.example.org/datasets/ADSL/01-701-1111> <http://www.example.org/datasets/vocab/ADSL_RFENDTC> "2012-09-17" .
<http://www.example.org/datasets/ADSL/01-701-1111> <http://www.example.org/datasets/vocab/ADSL_DISONSDT> "17991.0E0"^^<http://www.w3.org/2001/XMLSchema#double> .
<http://www.example.org/datasets/ADSL/01-701-1111> <http://www.example.org/datasets/vocab/ADSL_AGEGR1> ">80" .
<http://www.example.org/datasets/ADSL/01-701-1111> <http://www.example.org/datasets/vocab/ADSL_VISIT1DT> "19230.0E0"^^<http://www.w3.org/2001/XMLSchema#double> .
<http://www.example.org/datasets/ADSL/01-701-1111> <http://www.example.org/datasets/vocab/ADSL_COMP8FL> "N" .
<http://www.example.org/datasets/ADSL/01-701-1111> <http://www.example.org/datasets/vocab/ADSL_SUBJID> "1111" .
<http://www.example.org/datasets/ADSL/01-701-1111> <http://www.w3.org/1999/02/22-rdf-syntax-ns#type> <http://www.example.org/datasets/vocab/ADSL> .
<http://www.example.org/datasets/ADSL/01-701-1115> <http://www.example.org/datasets/vocab/ADSL_TRTSDT> "19327.0E0"^^<http://www.w3.org/2001/XMLSchema#double> .
<http://www.example.org/datasets/ADSL/01-701-1115> <http://www.example.org/datasets/vocab/ADSL_SAFFL> "Y" .
<http://www.example.org/datasets/ADSL/01-701-1115> <http://www.example.org/datasets/vocab/ADSL_TRTEDT> "19381.0E0"^^<http://www.w3.org/2001/XMLSchema#double> .
<http://www.example.org/datasets/ADSL/01-701-1115> <http://www.example.org/datasets/vocab/ADSL_DTHFL> "" .
<http://www.example.org/datasets/ADSL/01-701-1115> <http://www.example.org/datasets/vocab/ADSL_AGE> "84.0E0"^^<http://www.w3.org/2001/XMLSchema#double> .
<http://www.example.org/datasets/ADSL/01-701-1115> <http://www.example.org/datasets/vocab/ADSL_RFSTDTC> "2012-11-30" .
<http://www.example.org/datasets/ADSL/01-701-1115> <http://www.example.org/datasets/vocab/ADSL_SEX> "M" .
<http://www.example.org/datasets/ADSL/01-701-1115> <http://www.example.org/datasets/vocab/ADSL_DURDSGR1> ">=12" .
<http://www.example.org/datasets/ADSL/01-701-1115> <http://www.example.org/datasets/vocab/ADSL_TRTDUR> "55.0E0"^^<http://www.w3.org/2001/XMLSchema#double> .
<http://www.example.org/datasets/ADSL/01-701-1115> <http://www.example.org/datasets/vocab/ADSL_USUBJID> "01-701-1115" .
<http://www.example.org/datasets/ADSL/01-701-1115> <http://www.example.org/datasets/vocab/ADSL_TRT01A> "Xanomeline Low Dose" .
<http://www.example.org/datasets/ADSL/01-701-1115> <http://www.example.org/datasets/vocab/ADSL_HEIGHTBL> "181.6E0"^^<http://www.w3.org/2001/XMLSchema#double> .
<http://www.example.org/datasets/ADSL/01-701-1115> <http://www.example.org/datasets/vocab/ADSL_ETHNIC> "NOT HISPANIC OR LATINO" .
<http://www.example.org/datasets/ADSL/01-701-1115> <http://www.example.org/datasets/vocab/ADSL_RACE> "WHITE" .
<http://www.example.org/datasets/ADSL/01-701-1115> <http://www.example.org/datasets/vocab/ADSL_TRT01AN> "54.0E0"^^<http://www.w3.org/2001/XMLSchema#double> .
<http://www.example.org/datasets/ADSL/01-701-1115> <http://www.example.org/datasets/vocab/ADSL_SITEGR1> "701" .
<http://www.example.org/datasets/ADSL/01-701-1115> <http://www.example.org/datasets/vocab/ADSL_TRT01PN> "54.0E0"^^<http://www.w3.org/2001/XMLSchema#double> .
<http://www.example.org/datasets/ADSL/01-701-1115> <http://www.example.org/datasets/vocab/ADSL_VISNUMEN> "8.0E0"^^<http://www.w3.org/2001/XMLSchema#double> .
<http://www.example.org/datasets/ADSL/01-701-1115> <http://www.example.org/datasets/vocab/ADSL_AGEU> "YEARS" .
<http://www.example.org/datasets/ADSL/01-701-1115> <http://www.example.org/datasets/vocab/ADSL_COMP16FL> "N" .
<http://www.example.org/datasets/ADSL/01-701-1115> <http://www.example.org/datasets/vocab/ADSL_AVGDD> "54.0E0"^^<http://www.w3.org/2001/XMLSchema#double> .
<http://www.example.org/datasets/ADSL/01-701-1115> <http://www.example.org/datasets/vocab/ADSL_SITEID> "701" .
<http://www.example.org/datasets/ADSL/01-701-1115> <http://www.example.org/datasets/vocab/ADSL_WEIGHTBL> "78.9E0"^^<http://www.w3.org/2001/XMLSchema#double> .
<http://www.example.org/datasets/ADSL/01-701-1115> <http://www.example.org/datasets/vocab/ADSL_COMP24FL> "N" .
<http://www.example.org/datasets/ADSL/01-701-1115> <http://www.example.org/datasets/vocab/ADSL_DURDIS> "101.9E0"^^<http://www.w3.org/2001/XMLSchema#double> .
<http://www.example.org/datasets/ADSL/01-701-1115> <http://www.example.org/datasets/vocab/ADSL_RACEN> "1.0E0"^^<http://www.w3.org/2001/XMLSchema#double> .
<http://www.example.org/datasets/ADSL/01-701-1115> <http://www.example.org/datasets/vocab/ADSL_ITTFL> "Y" .
<http://www.example.org/datasets/ADSL/01-701-1115> <http://www.example.org/datasets/vocab/ADSL_STUDYID> "CDISCPILOT01" .
<http://www.example.org/datasets/ADSL/01-701-1115> <http://www.example.org/datasets/vocab/ADSL_BMIBLGR1> "<25" .
<http://www.example.org/datasets/ADSL/01-701-1115> <http://www.example.org/datasets/vocab/ADSL_TRT01P> "Xanomeline Low Dose" .
<http://www.example.org/datasets/ADSL/01-701-1115> <http://www.example.org/datasets/vocab/ADSL_EDUCLVL> "12.0E0"^^<http://www.w3.org/2001/XMLSchema#double> .
<http://www.example.org/datasets/ADSL/01-701-1115> <http://www.example.org/datasets/vocab/ADSL_EFFFL> "Y" .
<http://www.example.org/datasets/ADSL/01-701-1115> <http://www.example.org/datasets/vocab/ADSL_ARM> "Xanomeline Low Dose" .
<http://www.example.org/datasets/ADSL/01-701-1115> <http://www.w3.org/2000/01/rdf-schema#label> "ADSL #01-701-1115" .
<http://www.example.org/datasets/ADSL/01-701-1115> <http://www.example.org/datasets/vocab/ADSL_AGEGR1N> "3.0E0"^^<http://www.w3.org/2001/XMLSchema#double> .
<http://www.example.org/datasets/ADSL/01-701-1115> <http://www.example.org/datasets/vocab/ADSL_RFENDT> "19381.0E0"^^<http://www.w3.org/2001/XMLSchema#double> .
<http://www.example.org/datasets/ADSL/01-701-1115> <http://www.example.org/datasets/vocab/ADSL_CUMDOSE> "2970.0E0"^^<http://www.w3.org/2001/XMLSchema#double> .
<http://www.example.org/datasets/ADSL/01-701-1115> <http://www.example.org/datasets/vocab/ADSL_DCREASCD> "Adverse Event" .
<http://www.example.org/datasets/ADSL/01-701-1115> <http://www.example.org/datasets/vocab/ADSL_BMIBL> "23.9E0"^^<http://www.w3.org/2001/XMLSchema#double> .
<http://www.example.org/datasets/ADSL/01-701-1115> <http://www.example.org/datasets/vocab/ADSL_DISCONFL> "Y" .
<http://www.example.org/datasets/ADSL/01-701-1115> <http://www.example.org/datasets/vocab/ADSL_DSRAEFL> "Y" .
<http://www.example.org/datasets/ADSL/01-701-1115> <http://www.example.org/datasets/vocab/ADSL_MMSETOT> "20.0E0"^^<http://www.w3.org/2001/XMLSchema#double> .
<http://www.example.org/datasets/ADSL/01-701-1115> <http://www.example.org/datasets/vocab/ADSL_DCDECOD> "ADVERSE EVENT" .
<http://www.example.org/datasets/ADSL/01-701-1115> <http://www.example.org/datasets/vocab/ADSL_RFENDTC> "2013-01-23" .
<http://www.example.org/datasets/ADSL/01-701-1115> <http://www.example.org/datasets/vocab/ADSL_DISONSDT> "16219.0E0"^^<http://www.w3.org/2001/XMLSchema#double> .
<http://www.example.org/datasets/ADSL/01-701-1115> <http://www.example.org/datasets/vocab/ADSL_AGEGR1> ">80" .
<http://www.example.org/datasets/ADSL/01-701-1115> <http://www.example.org/datasets/vocab/ADSL_VISIT1DT> "19320.0E0"^^<http://www.w3.org/2001/XMLSchema#double> .
<http://www.example.org/datasets/ADSL/01-701-1115> <http://www.example.org/datasets/vocab/ADSL_COMP8FL> "Y" .
<http://www.example.org/datasets/ADSL/01-701-1115> <http://www.example.org/datasets/vocab/ADSL_SUBJID> "1115" .
<http://www.example.org/datasets/ADSL/01-701-1115> <http://www.w3.org/1999/02/22-rdf-syntax-ns#type> <http://www.example.org/datasets/vocab/ADSL> .
<http://www.example.org/datasets/ADSL/01-701-1118> <http://www.example.org/datasets/vocab/ADSL_TRTSDT> "19794.0E0"^^<http://www.w3.org/2001/XMLSchema#double> .
<http://www.example.org/datasets/ADSL/01-701-1118> <http://www.example.org/datasets/vocab/ADSL_SAFFL> "Y" .
<http://www.example.org/datasets/ADSL/01-701-1118> <http://www.example.org/datasets/vocab/ADSL_TRTEDT> "19975.0E0"^^<http://www.w3.org/2001/XMLSchema#double> .
<http://www.example.org/datasets/ADSL/01-701-1118> <http://www.example.org/datasets/vocab/ADSL_DTHFL> "" .
<http://www.example.org/datasets/ADSL/01-701-1118> <http://www.example.org/datasets/vocab/ADSL_AGE> "52.0E0"^^<http://www.w3.org/2001/XMLSchema#double> .
<http://www.example.org/datasets/ADSL/01-701-1118> <http://www.example.org/datasets/vocab/ADSL_RFSTDTC> "2014-03-12" .
<http://www.example.org/datasets/ADSL/01-701-1118> <http://www.example.org/datasets/vocab/ADSL_SEX> "M" .
<http://www.example.org/datasets/ADSL/01-701-1118> <http://www.example.org/datasets/vocab/ADSL_DURDSGR1> ">=12" .
<http://www.example.org/datasets/ADSL/01-701-1118> <http://www.example.org/datasets/vocab/ADSL_TRTDUR> "182.0E0"^^<http://www.w3.org/2001/XMLSchema#double> .
<http://www.example.org/datasets/ADSL/01-701-1118> <http://www.example.org/datasets/vocab/ADSL_USUBJID> "01-701-1118" .
<http://www.example.org/datasets/ADSL/01-701-1118> <http://www.example.org/datasets/vocab/ADSL_TRT01A> "Placebo" .
<http://www.example.org/datasets/ADSL/01-701-1118> <http://www.example.org/datasets/vocab/ADSL_HEIGHTBL> "180.3E0"^^<http://www.w3.org/2001/XMLSchema#double> .
<http://www.example.org/datasets/ADSL/01-701-1118> <http://www.example.org/datasets/vocab/ADSL_ETHNIC> "NOT HISPANIC OR LATINO" .
<http://www.example.org/datasets/ADSL/01-701-1118> <http://www.example.org/datasets/vocab/ADSL_RACE> "WHITE" .
<http://www.example.org/datasets/ADSL/01-701-1118> <http://www.example.org/datasets/vocab/ADSL_TRT01AN> "0.0E0"^^<http://www.w3.org/2001/XMLSchema#double> .
<http://www.example.org/datasets/ADSL/01-701-1118> <http://www.example.org/datasets/vocab/ADSL_SITEGR1> "701" .
<http://www.example.org/datasets/ADSL/01-701-1118> <http://www.example.org/datasets/vocab/ADSL_TRT01PN> "0.0E0"^^<http://www.w3.org/2001/XMLSchema#double> .
<http://www.example.org/datasets/ADSL/01-701-1118> <http://www.example.org/datasets/vocab/ADSL_VISNUMEN> "12.0E0"^^<http://www.w3.org/2001/XMLSchema#double> .
<http://www.example.org/datasets/ADSL/01-701-1118> <http://www.example.org/datasets/vocab/ADSL_AGEU> "YEARS" .
<http://www.example.org/datasets/ADSL/01-701-1118> <http://www.example.org/datasets/vocab/ADSL_COMP16FL> "Y" .
<http://www.example.org/datasets/ADSL/01-701-1118> <http://www.example.org/datasets/vocab/ADSL_AVGDD> "0.0E0"^^<http://www.w3.org/2001/XMLSchema#double> .
<http://www.example.org/datasets/ADSL/01-701-1118> <http://www.example.org/datasets/vocab/ADSL_SITEID> "701" .
<http://www.example.org/datasets/ADSL/01-701-1118> <http://www.example.org/datasets/vocab/ADSL_WEIGHTBL> "71.2E0"^^<http://www.w3.org/2001/XMLSchema#double> .
<http://www.example.org/datasets/ADSL/01-701-1118> <http://www.example.org/datasets/vocab/ADSL_COMP24FL> "Y" .
<http://www.example.org/datasets/ADSL/01-701-1118> <http://www.example.org/datasets/vocab/ADSL_DURDIS> "44.2E0"^^<http://www.w3.org/2001/XMLSchema#double> .
<http://www.example.org/datasets/ADSL/01-701-1118> <http://www.example.org/datasets/vocab/ADSL_RACEN> "1.0E0"^^<http://www.w3.org/2001/XMLSchema#double> .
<http://www.example.org/datasets/ADSL/01-701-1118> <http://www.example.org/datasets/vocab/ADSL_ITTFL> "Y" .
<http://www.example.org/datasets/ADSL/01-701-1118> <http://www.example.org/datasets/vocab/ADSL_STUDYID> "CDISCPILOT01" .
<http://www.example.org/datasets/ADSL/01-701-1118> <http://www.example.org/datasets/vocab/ADSL_BMIBLGR1> "<25" .
<http://www.example.org/datasets/ADSL/01-701-1118> <http://www.example.org/datasets/vocab/ADSL_TRT01P> "Placebo" .
<http://www.example.org/datasets/ADSL/01-701-1118> <http://www.example.org/datasets/vocab/ADSL_EDUCLVL> "14.0E0"^^<http://www.w3.org/2001/XMLSchema#double> .
<http://www.example.org/datasets/ADSL/01-701-1118> <http://www.example.org/datasets/vocab/ADSL_EFFFL> "Y" .
<http://www.example.org/datasets/ADSL/01-701-1118> <http://www.example.org/datasets/vocab/ADSL_ARM> "Placebo" .
<http://www.example.org/datasets/ADSL/01-701-1118> <http://www.w3.org/2000/01/rdf-schema#label> "ADSL #01-701-1118" .
<http://www.example.org/datasets/ADSL/01-701-1118> <http://www.example.org/datasets/vocab/ADSL_AGEGR1N> "1.0E0"^^<http://www.w3.org/2001/XMLSchema#double> .
<http://www.example.org/datasets/ADSL/01-701-1118> <http://www.example.org/datasets/vocab/ADSL_RFENDT> "19975.0E0"^^<http://www.w3.org/2001/XMLSchema#double> .
<http://www.example.org/datasets/ADSL/01-701-1118> <http://www.example.org/datasets/vocab/ADSL_CUMDOSE> "0.0E0"^^<http://www.w3.org/2001/XMLSchema#double> .
<http://www.example.org/datasets/ADSL/01-701-1118> <http://www.example.org/datasets/vocab/ADSL_DCREASCD> "Completed" .
<http://www.example.org/datasets/ADSL/01-701-1118> <http://www.example.org/datasets/vocab/ADSL_BMIBL> "21.9E0"^^<http://www.w3.org/2001/XMLSchema#double> .
<http://www.example.org/datasets/ADSL/01-701-1118> <http://www.example.org/datasets/vocab/ADSL_DISCONFL> "" .
<http://www.example.org/datasets/ADSL/01-701-1118> <http://www.example.org/datasets/vocab/ADSL_DSRAEFL> "" .
<http://www.example.org/datasets/ADSL/01-701-1118> <http://www.example.org/datasets/vocab/ADSL_MMSETOT> "20.0E0"^^<http://www.w3.org/2001/XMLSchema#double> .
<http://www.example.org/datasets/ADSL/01-701-1118> <http://www.example.org/datasets/vocab/ADSL_DCDECOD> "COMPLETED" .
<http://www.example.org/datasets/ADSL/01-701-1118> <http://www.example.org/datasets/vocab/ADSL_RFENDTC> "2014-09-09" .
<http://www.example.org/datasets/ADSL/01-701-1118> <http://www.example.org/datasets/vocab/ADSL_DISONSDT> "18437.0E0"^^<http://www.w3.org/2001/XMLSchema#double> .
<http://www.example.org/datasets/ADSL/01-701-1118> <http://www.example.org/datasets/vocab/ADSL_AGEGR1> "<65" .
<http://www.example.org/datasets/ADSL/01-701-1118> <http://www.example.org/datasets/vocab/ADSL_VISIT1DT> "19781.0E0"^^<http://www.w3.org/2001/XMLSchema#double> .
<http://www.example.org/datasets/ADSL/01-701-1118> <http://www.example.org/datasets/vocab/ADSL_COMP8FL> "Y" .
<http://www.example.org/datasets/ADSL/01-701-1118> <http://www.example.org/datasets/vocab/ADSL_SUBJID> "1118" .
<http://www.example.org/datasets/ADSL/01-701-1118> <http://www.w3.org/1999/02/22-rdf-syntax-ns#type> <http://www.example.org/datasets/vocab/ADSL> .
<http://www.example.org/datasets/ADSL/01-701-1130> <http://www.example.org/datasets/vocab/ADSL_TRTSDT> "19769.0E0"^^<http://www.w3.org/2001/XMLSchema#double> .
<http://www.example.org/datasets/ADSL/01-701-1130> <http://www.example.org/datasets/vocab/ADSL_SAFFL> "Y" .
<http://www.example.org/datasets/ADSL/01-701-1130> <http://www.example.org/datasets/vocab/ADSL_TRTEDT> "19951.0E0"^^<http://www.w3.org/2001/XMLSchema#double> .
<http://www.example.org/datasets/ADSL/01-701-1130> <http://www.example.org/datasets/vocab/ADSL_DTHFL> "" .
<http://www.example.org/datasets/ADSL/01-701-1130> <http://www.example.org/datasets/vocab/ADSL_AGE> "84.0E0"^^<http://www.w3.org/2001/XMLSchema#double> .
<http://www.example.org/datasets/ADSL/01-701-1130> <http://www.example.org/datasets/vocab/ADSL_RFSTDTC> "2014-02-15" .
<http://www.example.org/datasets/ADSL/01-701-1130> <http://www.example.org/datasets/vocab/ADSL_SEX> "M" .
<http://www.example.org/datasets/ADSL/01-701-1130> <http://www.example.org/datasets/vocab/ADSL_DURDSGR1> ">=12" .
<http://www.example.org/datasets/ADSL/01-701-1130> <http://www.example.org/datasets/vocab/ADSL_TRTDUR> "183.0E0"^^<http://www.w3.org/2001/XMLSchema#double> .
<http://www.example.org/datasets/ADSL/01-701-1130> <http://www.example.org/datasets/vocab/ADSL_USUBJID> "01-701-1130" .
<http://www.example.org/datasets/ADSL/01-701-1130> <http://www.example.org/datasets/vocab/ADSL_TRT01A> "Placebo" .
<http://www.example.org/datasets/ADSL/01-701-1130> <http://www.example.org/datasets/vocab/ADSL_HEIGHTBL> "169.7E0"^^<http://www.w3.org/2001/XMLSchema#double> .
<http://www.example.org/datasets/ADSL/01-701-1130> <http://www.example.org/datasets/vocab/ADSL_ETHNIC> "NOT HISPANIC OR LATINO" .
<http://www.example.org/datasets/ADSL/01-701-1130> <http://www.example.org/datasets/vocab/ADSL_RACE> "WHITE" .
<http://www.example.org/datasets/ADSL/01-701-1130> <http://www.example.org/datasets/vocab/ADSL_TRT01AN> "0.0E0"^^<http://www.w3.org/2001/XMLSchema#double> .
<http://www.example.org/datasets/ADSL/01-701-1130> <http://www.example.org/datasets/vocab/ADSL_SITEGR1> "701" .
<http://www.example.org/datasets/ADSL/01-701-1130> <http://www.example.org/datasets/vocab/ADSL_TRT01PN> "0.0E0"^^<http://www.w3.org/2001/XMLSchema#double> .
<http://www.example.org/datasets/ADSL/01-701-1130> <http://www.example.org/datasets/vocab/ADSL_VISNUMEN> "12.0E0"^^<http://www.w3.org/2001/XMLSchema#double> .
<http://www.example.org/datasets/ADSL/01-701-1130> <http://www.example.org/datasets/vocab/ADSL_AGEU> "YEARS" .
<http://www.example.org/datasets/ADSL/01-701-1130> <http://www.example.org/datasets/vocab/ADSL_COMP16FL> "Y" .
<http://www.example.org/datasets/ADSL/01-701-1130> <http://www.example.org/datasets/vocab/ADSL_AVGDD> "0.0E0"^^<http://www.w3.org/2001/XMLSchema#double> .
<http://www.example.org/datasets/ADSL/01-701-1130> <http://www.example.org/datasets/vocab/ADSL_SITEID> "701" .
<http://www.example.org/datasets/ADSL/01-701-1130> <http://www.example.org/datasets/vocab/ADSL_WEIGHTBL> "79.4E0"^^<http://www.w3.org/2001/XMLSchema#double> .
<http://www.example.org/datasets/ADSL/01-701-1130> <http://www.example.org/datasets/vocab/ADSL_COMP24FL> "Y" .
<http://www.example.org/datasets/ADSL/01-701-1130> <http://www.example.org/datasets/vocab/ADSL_DURDIS> "44.7E0"^^<http://www.w3.org/2001/XMLSchema#double> .
<http://www.example.org/datasets/ADSL/01-701-1130> <http://www.example.org/datasets/vocab/ADSL_RACEN> "1.0E0"^^<http://www.w3.org/2001/XMLSchema#double> .
<http://www.example.org/datasets/ADSL/01-701-1130> <http://www.example.org/datasets/vocab/ADSL_ITTFL> "Y" .
<http://www.example.org/datasets/ADSL/01-701-1130> <http://www.example.org/datasets/vocab/ADSL_STUDYID> "CDISCPILOT01" .
<http://www.example.org/datasets/ADSL/01-701-1130> <http://www.example.org/datasets/vocab/ADSL_BMIBLGR1> "25-<30" .
<http://www.example.org/datasets/ADSL/01-701-1130> <http://www.example.org/datasets/vocab/ADSL_TRT01P> "Placebo" .
<http://www.example.org/datasets/ADSL/01-701-1130> <http://www.example.org/datasets/vocab/ADSL_EDUCLVL> "12.0E0"^^<http://www.w3.org/2001/XMLSchema#double> .
<http://www.example.org/datasets/ADSL/01-701-1130> <http://www.example.org/datasets/vocab/ADSL_EFFFL> "Y" .
<http://www.example.org/datasets/ADSL/01-701-1130> <http://www.example.org/datasets/vocab/ADSL_ARM> "Placebo" .
<http://www.example.org/datasets/ADSL/01-701-1130> <http://www.w3.org/2000/01/rdf-schema#label> "ADSL #01-701-1130" .
<http://www.example.org/datasets/ADSL/01-701-1130> <http://www.example.org/datasets/vocab/ADSL_AGEGR1N> "3.0E0"^^<http://www.w3.org/2001/XMLSchema#double> .
<http://www.example.org/datasets/ADSL/01-701-1130> <http://www.example.org/datasets/vocab/ADSL_RFENDT> "19951.0E0"^^<http://www.w3.org/2001/XMLSchema#double> .
<http://www.example.org/datasets/ADSL/01-701-1130> <http://www.example.org/datasets/vocab/ADSL_CUMDOSE> "0.0E0"^^<http://www.w3.org/2001/XMLSchema#double> .
<http://www.example.org/datasets/ADSL/01-701-1130> <http://www.example.org/datasets/vocab/ADSL_DCREASCD> "Completed" .
<http://www.example.org/datasets/ADSL/01-701-1130> <http://www.example.org/datasets/vocab/ADSL_BMIBL> "27.6E0"^^<http://www.w3.org/2001/XMLSchema#double> .
<http://www.example.org/datasets/ADSL/01-701-1130> <http://www.example.org/datasets/vocab/ADSL_DISCONFL> "" .
<http://www.example.org/datasets/ADSL/01-701-1130> <http://www.example.org/datasets/vocab/ADSL_DSRAEFL> "" .
<http://www.example.org/datasets/ADSL/01-701-1130> <http://www.example.org/datasets/vocab/ADSL_MMSETOT> "19.0E0"^^<http://www.w3.org/2001/XMLSchema#double> .
<http://www.example.org/datasets/ADSL/01-701-1130> <http://www.example.org/datasets/vocab/ADSL_DCDECOD> "COMPLETED" .
<http://www.example.org/datasets/ADSL/01-701-1130> <http://www.example.org/datasets/vocab/ADSL_RFENDTC> "2014-08-16" .
<http://www.example.org/datasets/ADSL/01-701-1130> <http://www.example.org/datasets/vocab/ADSL_DISONSDT> "18404.0E0"^^<http://www.w3.org/2001/XMLSchema#double> .
<http://www.example.org/datasets/ADSL/01-701-1130> <http://www.example.org/datasets/vocab/ADSL_AGEGR1> ">80" .
<http://www.example.org/datasets/ADSL/01-701-1130> <http://www.example.org/datasets/vocab/ADSL_VISIT1DT> "19763.0E0"^^<http://www.w3.org/2001/XMLSchema#double> .
<http://www.example.org/datasets/ADSL/01-701-1130> <http://www.example.org/datasets/vocab/ADSL_COMP8FL> "Y" .
<http://www.example.org/datasets/ADSL/01-701-1130> <http://www.example.org/datasets/vocab/ADSL_SUBJID> "1130" .
<http://www.example.org/datasets/ADSL/01-701-1130> <http://www.w3.org/1999/02/22-rdf-syntax-ns#type> <http://www.example.org/datasets/vocab/ADSL> .
<http://www.example.org/datasets/ADSL/01-701-1133> <http://www.example.org/datasets/vocab/ADSL_TRTSDT> "19294.0E0"^^<http://www.w3.org/2001/XMLSchema#double> .
<http://www.example.org/datasets/ADSL/01-701-1133> <http://www.example.org/datasets/vocab/ADSL_SAFFL> "Y" .
<http://www.example.org/datasets/ADSL/01-701-1133> <http://www.example.org/datasets/vocab/ADSL_TRTEDT> "19476.0E0"^^<http://www.w3.org/2001/XMLSchema#double> .
<http://www.example.org/datasets/ADSL/01-701-1133> <http://www.example.org/datasets/vocab/ADSL_DTHFL> "" .
<http://www.example.org/datasets/ADSL/01-701-1133> <http://www.example.org/datasets/vocab/ADSL_AGE> "81.0E0"^^<http://www.w3.org/2001/XMLSchema#double> .
<http://www.example.org/datasets/ADSL/01-701-1133> <http://www.example.org/datasets/vocab/ADSL_RFSTDTC> "2012-10-28" .
<http://www.example.org/datasets/ADSL/01-701-1133> <http://www.example.org/datasets/vocab/ADSL_SEX> "F" .
<http://www.example.org/datasets/ADSL/01-701-1133> <http://www.example.org/datasets/vocab/ADSL_DURDSGR1> ">=12" .
<http://www.example.org/datasets/ADSL/01-701-1133> <http://www.example.org/datasets/vocab/ADSL_TRTDUR> "183.0E0"^^<http://www.w3.org/2001/XMLSchema#double> .
<http://www.example.org/datasets/ADSL/01-701-1133> <http://www.example.org/datasets/vocab/ADSL_USUBJID> "01-701-1133" .
<http://www.example.org/datasets/ADSL/01-701-1133> <http://www.example.org/datasets/vocab/ADSL_TRT01A> "Xanomeline High Dose" .
<http://www.example.org/datasets/ADSL/01-701-1133> <http://www.example.org/datasets/vocab/ADSL_HEIGHTBL> "162.6E0"^^<http://www.w3.org/2001/XMLSchema#double> .
<http://www.example.org/datasets/ADSL/01-701-1133> <http://www.example.org/datasets/vocab/ADSL_ETHNIC> "NOT HISPANIC OR LATINO" .
<http://www.example.org/datasets/ADSL/01-701-1133> <http://www.example.org/datasets/vocab/ADSL_RACE> "WHITE" .
<http://www.example.org/datasets/ADSL/01-701-1133> <http://www.example.org/datasets/vocab/ADSL_TRT01AN> "81.0E0"^^<http://www.w3.org/2001/XMLSchema#double> .
<http://www.example.org/datasets/ADSL/01-701-1133> <http://www.example.org/datasets/vocab/ADSL_SITEGR1> "701" .
<http://www.example.org/datasets/ADSL/01-701-1133> <http://www.example.org/datasets/vocab/ADSL_TRT01PN> "81.0E0"^^<http://www.w3.org/2001/XMLSchema#double> .
<http://www.example.org/datasets/ADSL/01-701-1133> <http://www.example.org/datasets/vocab/ADSL_VISNUMEN> "12.0E0"^^<http://www.w3.org/2001/XMLSchema#double> .
<http://www.example.org/datasets/ADSL/01-701-1133> <http://www.example.org/datasets/vocab/ADSL_AGEU> "YEARS" .
<http://www.example.org/datasets/ADSL/01-701-1133> <http://www.example.org/datasets/vocab/ADSL_COMP16FL> "Y" .
<http://www.example.org/datasets/ADSL/01-701-1133> <http://www.example.org/datasets/vocab/ADSL_AVGDD> "77.2E0"^^<http://www.w3.org/2001/XMLSchema#double> .
<http://www.example.org/datasets/ADSL/01-701-1133> <http://www.example.org/datasets/vocab/ADSL_SITEID> "701" .
<http://www.example.org/datasets/ADSL/01-701-1133> <http://www.example.org/datasets/vocab/ADSL_WEIGHTBL> "74.4E0"^^<http://www.w3.org/2001/XMLSchema#double> .
<http://www.example.org/datasets/ADSL/01-701-1133> <http://www.example.org/datasets/vocab/ADSL_COMP24FL> "Y" .
<http://www.example.org/datasets/ADSL/01-701-1133> <http://www.example.org/datasets/vocab/ADSL_DURDIS> "31.5E0"^^<http://www.w3.org/2001/XMLSchema#double> .
<http://www.example.org/datasets/ADSL/01-701-1133> <http://www.example.org/datasets/vocab/ADSL_RACEN> "1.0E0"^^<http://www.w3.org/2001/XMLSchema#double> .
<http://www.example.org/datasets/ADSL/01-701-1133> <http://www.example.org/datasets/vocab/ADSL_ITTFL> "Y" .
<http://www.example.org/datasets/ADSL/01-701-1133> <http://www.example.org/datasets/vocab/ADSL_STUDYID> "CDISCPILOT01" .
<http://www.example.org/datasets/ADSL/01-701-1133> <http://www.example.org/datasets/vocab/ADSL_BMIBLGR1> "25-<30" .
<http://www.example.org/datasets/ADSL/01-701-1133> <http://www.example.org/datasets/vocab/ADSL_TRT01P> "Xanomeline High Dose" .
<http://www.example.org/datasets/ADSL/01-701-1133> <http://www.example.org/datasets/vocab/ADSL_EDUCLVL> "10.0E0"^^<http://www.w3.org/2001/XMLSchema#double> .
<http://www.example.org/datasets/ADSL/01-701-1133> <http://www.example.org/datasets/vocab/ADSL_EFFFL> "Y" .
<http://www.example.org/datasets/ADSL/01-701-1133> <http://www.example.org/datasets/vocab/ADSL_ARM> "Xanomeline High Dose" .
<http://www.example.org/datasets/ADSL/01-701-1133> <http://www.w3.org/2000/01/rdf-schema#label> "ADSL #01-701-1133" .
<http://www.example.org/datasets/ADSL/01-701-1133> <http://www.example.org/datasets/vocab/ADSL_AGEGR1N> "3.0E0"^^<http://www.w3.org/2001/XMLSchema#double> .
<http://www.example.org/datasets/ADSL/01-701-1133> <http://www.example.org/datasets/vocab/ADSL_RFENDT> "19477.0E0"^^<http://www.w3.org/2001/XMLSchema#double> .
<http://www.example.org/datasets/ADSL/01-701-1133> <http://www.example.org/datasets/vocab/ADSL_CUMDOSE> "14121.0E0"^^<http://www.w3.org/2001/XMLSchema#double> .
<http://www.example.org/datasets/ADSL/01-701-1133> <http://www.example.org/datasets/vocab/ADSL_DCREASCD> "Completed" .
<http://www.example.org/datasets/ADSL/01-701-1133> <http://www.example.org/datasets/vocab/ADSL_BMIBL> "28.1E0"^^<http://www.w3.org/2001/XMLSchema#double> .
<http://www.example.org/datasets/ADSL/01-701-1133> <http://www.example.org/datasets/vocab/ADSL_DISCONFL> "" .
<http://www.example.org/datasets/ADSL/01-701-1133> <http://www.example.org/datasets/vocab/ADSL_DSRAEFL> "" .
<http://www.example.org/datasets/ADSL/01-701-1133> <http://www.example.org/datasets/vocab/ADSL_MMSETOT> "21.0E0"^^<http://www.w3.org/2001/XMLSchema#double> .
<http://www.example.org/datasets/ADSL/01-701-1133> <http://www.example.org/datasets/vocab/ADSL_DCDECOD> "COMPLETED" .
<http://www.example.org/datasets/ADSL/01-701-1133> <http://www.example.org/datasets/vocab/ADSL_RFENDTC> "2013-04-29" .
<http://www.example.org/datasets/ADSL/01-701-1133> <http://www.example.org/datasets/vocab/ADSL_DISONSDT> "18332.0E0"^^<http://www.w3.org/2001/XMLSchema#double> .
<http://www.example.org/datasets/ADSL/01-701-1133> <http://www.example.org/datasets/vocab/ADSL_AGEGR1> ">80" .
<http://www.example.org/datasets/ADSL/01-701-1133> <http://www.example.org/datasets/vocab/ADSL_VISIT1DT> "19289.0E0"^^<http://www.w3.org/2001/XMLSchema#double> .
<http://www.example.org/datasets/ADSL/01-701-1133> <http://www.example.org/datasets/vocab/ADSL_COMP8FL> "Y" .
<http://www.example.org/datasets/ADSL/01-701-1133> <http://www.example.org/datasets/vocab/ADSL_SUBJID> "1133" .
<http://www.example.org/datasets/ADSL/01-701-1133> <http://www.w3.org/1999/02/22-rdf-syntax-ns#type> <http://www.example.org/datasets/vocab/ADSL> .
<http://www.example.org/datasets/ADSL/01-701-1146> <http://www.example.org/datasets/vocab/ADSL_TRTSDT> "19498.0E0"^^<http://www.w3.org/2001/XMLSchema#double> .
<http://www.example.org/datasets/ADSL/01-701-1146> <http://www.example.org/datasets/vocab/ADSL_SAFFL> "Y" .
<http://www.example.org/datasets/ADSL/01-701-1146> <http://www.example.org/datasets/vocab/ADSL_TRTEDT> "19535.0E0"^^<http://www.w3.org/2001/XMLSchema#double> .
<http://www.example.org/datasets/ADSL/01-701-1146> <http://www.example.org/datasets/vocab/ADSL_DTHFL> "" .
<http://www.example.org/datasets/ADSL/01-701-1146> <http://www.example.org/datasets/vocab/ADSL_AGE> "75.0E0"^^<http://www.w3.org/2001/XMLSchema#double> .
<http://www.example.org/datasets/ADSL/01-701-1146> <http://www.example.org/datasets/vocab/ADSL_RFSTDTC> "2013-05-20" .
<http://www.example.org/datasets/ADSL/01-701-1146> <http://www.example.org/datasets/vocab/ADSL_SEX> "F" .
<http://www.example.org/datasets/ADSL/01-701-1146> <http://www.example.org/datasets/vocab/ADSL_DURDSGR1> ">=12" .
<http://www.example.org/datasets/ADSL/01-701-1146> <http://www.example.org/datasets/vocab/ADSL_TRTDUR> "38.0E0"^^<http://www.w3.org/2001/XMLSchema#double> .
<http://www.example.org/datasets/ADSL/01-701-1146> <http://www.example.org/datasets/vocab/ADSL_USUBJID> "01-701-1146" .
<http://www.example.org/datasets/ADSL/01-701-1146> <http://www.example.org/datasets/vocab/ADSL_TRT01A> "Xanomeline High Dose" .
<http://www.example.org/datasets/ADSL/01-701-1146> <http://www.example.org/datasets/vocab/ADSL_HEIGHTBL> "147.3E0"^^<http://www.w3.org/2001/XMLSchema#double> .
<http://www.example.org/datasets/ADSL/01-701-1146> <http://www.example.org/datasets/vocab/ADSL_ETHNIC> "NOT HISPANIC OR LATINO" .
<http://www.example.org/datasets/ADSL/01-701-1146> <http://www.example.org/datasets/vocab/ADSL_RACE> "WHITE" .
<http://www.example.org/datasets/ADSL/01-701-1146> <http://www.example.org/datasets/vocab/ADSL_TRT01AN> "81.0E0"^^<http://www.w3.org/2001/XMLSchema#double> .
<http://www.example.org/datasets/ADSL/01-701-1146> <http://www.example.org/datasets/vocab/ADSL_SITEGR1> "701" .
<http://www.example.org/datasets/ADSL/01-701-1146> <http://www.example.org/datasets/vocab/ADSL_TRT01PN> "81.0E0"^^<http://www.w3.org/2001/XMLSchema#double> .
<http://www.example.org/datasets/ADSL/01-701-1146> <http://www.example.org/datasets/vocab/ADSL_VISNUMEN> "7.0E0"^^<http://www.w3.org/2001/XMLSchema#double> .
<http://www.example.org/datasets/ADSL/01-701-1146> <http://www.example.org/datasets/vocab/ADSL_AGEU> "YEARS" .
<http://www.example.org/datasets/ADSL/01-701-1146> <http://www.example.org/datasets/vocab/ADSL_COMP16FL> "N" .
<http://www.example.org/datasets/ADSL/01-701-1146> <http://www.example.org/datasets/vocab/ADSL_AVGDD> "70.3E0"^^<http://www.w3.org/2001/XMLSchema#double> .
<http://www.example.org/datasets/ADSL/01-701-1146> <http://www.example.org/datasets/vocab/ADSL_SITEID> "701" .
<http://www.example.org/datasets/ADSL/01-701-1146> <http://www.example.org/datasets/vocab/ADSL_WEIGHTBL> "54.0E0"^^<http://www.w3.org/2001/XMLSchema#double> .
<http://www.example.org/datasets/ADSL/01-701-1146> <http://www.example.org/datasets/vocab/ADSL_COMP24FL> "N" .
<http://www.example.org/datasets/ADSL/01-701-1146> <http://www.example.org/datasets/vocab/ADSL_DURDIS> "41.7E0"^^<http://www.w3.org/2001/XMLSchema#double> .
<http://www.example.org/datasets/ADSL/01-701-1146> <http://www.example.org/datasets/vocab/ADSL_RACEN> "1.0E0"^^<http://www.w3.org/2001/XMLSchema#double> .
<http://www.example.org/datasets/ADSL/01-701-1146> <http://www.example.org/datasets/vocab/ADSL_ITTFL> "Y" .
<http://www.example.org/datasets/ADSL/01-701-1146> <http://www.example.org/datasets/vocab/ADSL_STUDYID> "CDISCPILOT01" .
<http://www.example.org/datasets/ADSL/01-701-1146> <http://www.example.org/datasets/vocab/ADSL_BMIBLGR1> "<25" .
<http://www.example.org/datasets/ADSL/01-701-1146> <http://www.example.org/datasets/vocab/ADSL_TRT01P> "Xanomeline High Dose" .
<http://www.example.org/datasets/ADSL/01-701-1146> <http://www.example.org/datasets/vocab/ADSL_EDUCLVL> "16.0E0"^^<http://www.w3.org/2001/XMLSchema#double> .
<http://www.example.org/datasets/ADSL/01-701-1146> <http://www.example.org/datasets/vocab/ADSL_EFFFL> "Y" .
<http://www.example.org/datasets/ADSL/01-701-1146> <http://www.example.org/datasets/vocab/ADSL_ARM> "Xanomeline High Dose" .
<http://www.example.org/datasets/ADSL/01-701-1146> <http://www.w3.org/2000/01/rdf-schema#label> "ADSL #01-701-1146" .
<http://www.example.org/datasets/ADSL/01-701-1146> <http://www.example.org/datasets/vocab/ADSL_AGEGR1N> "2.0E0"^^<http://www.w3.org/2001/XMLSchema#double> .
<http://www.example.org/datasets/ADSL/01-701-1146> <http://www.example.org/datasets/vocab/ADSL_RFENDT> "19539.0E0"^^<http://www.w3.org/2001/XMLSchema#double> .
<http://www.example.org/datasets/ADSL/01-701-1146> <http://www.example.org/datasets/vocab/ADSL_CUMDOSE> "2673.0E0"^^<http://www.w3.org/2001/XMLSchema#double> .
<http://www.example.org/datasets/ADSL/01-701-1146> <http://www.example.org/datasets/vocab/ADSL_DCREASCD> "Adverse Event" .
<http://www.example.org/datasets/ADSL/01-701-1146> <http://www.example.org/datasets/vocab/ADSL_BMIBL> "24.9E0"^^<http://www.w3.org/2001/XMLSchema#double> .
<http://www.example.org/datasets/ADSL/01-701-1146> <http://www.example.org/datasets/vocab/ADSL_DISCONFL> "Y" .
<http://www.example.org/datasets/ADSL/01-701-1146> <http://www.example.org/datasets/vocab/ADSL_DSRAEFL> "Y" .
<http://www.example.org/datasets/ADSL/01-701-1146> <http://www.example.org/datasets/vocab/ADSL_MMSETOT> "22.0E0"^^<http://www.w3.org/2001/XMLSchema#double> .
<http://www.example.org/datasets/ADSL/01-701-1146> <http://www.example.org/datasets/vocab/ADSL_DCDECOD> "ADVERSE EVENT" .
<http://www.example.org/datasets/ADSL/01-701-1146> <http://www.example.org/datasets/vocab/ADSL_RFENDTC> "2013-06-30" .
<http://www.example.org/datasets/ADSL/01-701-1146> <http://www.example.org/datasets/vocab/ADSL_DISONSDT> "18218.0E0"^^<http://www.w3.org/2001/XMLSchema#double> .
<http://www.example.org/datasets/ADSL/01-701-1146> <http://www.example.org/datasets/vocab/ADSL_AGEGR1> "65-80" .
<http://www.example.org/datasets/ADSL/01-701-1146> <http://www.example.org/datasets/vocab/ADSL_VISIT1DT> "19485.0E0"^^<http://www.w3.org/2001/XMLSchema#double> .
<http://www.example.org/datasets/ADSL/01-701-1146> <http://www.example.org/datasets/vocab/ADSL_COMP8FL> "N" .
<http://www.example.org/datasets/ADSL/01-701-1146> <http://www.example.org/datasets/vocab/ADSL_SUBJID> "1146" .
<http://www.example.org/datasets/ADSL/01-701-1146> <http://www.w3.org/1999/02/22-rdf-syntax-ns#type> <http://www.example.org/datasets/vocab/ADSL> .
<http://www.example.org/datasets/ADSL/01-701-1148> <http://www.example.org/datasets/vocab/ADSL_TRTSDT> "19593.0E0"^^<http://www.w3.org/2001/XMLSchema#double> .
<http://www.example.org/datasets/ADSL/01-701-1148> <http://www.example.org/datasets/vocab/ADSL_SAFFL> "Y" .
<http://www.example.org/datasets/ADSL/01-701-1148> <http://www.example.org/datasets/vocab/ADSL_TRTEDT> "19774.0E0"^^<http://www.w3.org/2001/XMLSchema#double> .
<http://www.example.org/datasets/ADSL/01-701-1148> <http://www.example.org/datasets/vocab/ADSL_DTHFL> "" .
<http://www.example.org/datasets/ADSL/01-701-1148> <http://www.example.org/datasets/vocab/ADSL_AGE> "57.0E0"^^<http://www.w3.org/2001/XMLSchema#double> .
<http://www.example.org/datasets/ADSL/01-701-1148> <http://www.example.org/datasets/vocab/ADSL_RFSTDTC> "2013-08-23" .
<http://www.example.org/datasets/ADSL/01-701-1148> <http://www.example.org/datasets/vocab/ADSL_SEX> "M" .
<http://www.example.org/datasets/ADSL/01-701-1148> <http://www.example.org/datasets/vocab/ADSL_DURDSGR1> ">=12" .
<http://www.example.org/datasets/ADSL/01-701-1148> <http://www.example.org/datasets/vocab/ADSL_TRTDUR> "182.0E0"^^<http://www.w3.org/2001/XMLSchema#double> .
<http://www.example.org/datasets/ADSL/01-701-1148> <http://www.example.org/datasets/vocab/ADSL_USUBJID> "01-701-1148" .
<http://www.example.org/datasets/ADSL/01-701-1148> <http://www.example.org/datasets/vocab/ADSL_TRT01A> "Xanomeline High Dose" .
<http://www.example.org/datasets/ADSL/01-701-1148> <http://www.example.org/datasets/vocab/ADSL_HEIGHTBL> "175.3E0"^^<http://www.w3.org/2001/XMLSchema#double> .
<http://www.example.org/datasets/ADSL/01-701-1148> <http://www.example.org/datasets/vocab/ADSL_ETHNIC> "NOT HISPANIC OR LATINO" .
<http://www.example.org/datasets/ADSL/01-701-1148> <http://www.example.org/datasets/vocab/ADSL_RACE> "WHITE" .
<http://www.example.org/datasets/ADSL/01-701-1148> <http://www.example.org/datasets/vocab/ADSL_TRT01AN> "81.0E0"^^<http://www.w3.org/2001/XMLSchema#double> .
<http://www.example.org/datasets/ADSL/01-701-1148> <http://www.example.org/datasets/vocab/ADSL_SITEGR1> "701" .
<http://www.example.org/datasets/ADSL/01-701-1148> <http://www.example.org/datasets/vocab/ADSL_TRT01PN> "81.0E0"^^<http://www.w3.org/2001/XMLSchema#double> .
<http://www.example.org/datasets/ADSL/01-701-1148> <http://www.example.org/datasets/vocab/ADSL_VISNUMEN> "12.0E0"^^<http://www.w3.org/2001/XMLSchema#double> .
<http://www.example.org/datasets/ADSL/01-701-1148> <http://www.example.org/datasets/vocab/ADSL_AGEU> "YEARS" .
<http://www.example.org/datasets/ADSL/01-701-1148> <http://www.example.org/datasets/vocab/ADSL_COMP16FL> "Y" .
<http://www.example.org/datasets/ADSL/01-701-1148> <http://www.example.org/datasets/vocab/ADSL_AVGDD> "77.1E0"^^<http://www.w3.org/2001/XMLSchema#double> .
<http://www.example.org/datasets/ADSL/01-701-1148> <http://www.example.org/datasets/vocab/ADSL_SITEID> "701" .
<http://www.example.org/datasets/ADSL/01-701-1148> <http://www.example.org/datasets/vocab/ADSL_WEIGHTBL> "87.1E0"^^<http://www.w3.org/2001/XMLSchema#double> .
<http://www.example.org/datasets/ADSL/01-701-1148> <http://www.example.org/datasets/vocab/ADSL_COMP24FL> "Y" .
<http://www.example.org/datasets/ADSL/01-701-1148> <http://www.example.org/datasets/vocab/ADSL_DURDIS> "32.1E0"^^<http://www.w3.org/2001/XMLSchema#double> .
<http://www.example.org/datasets/ADSL/01-701-1148> <http://www.example.org/datasets/vocab/ADSL_RACEN> "1.0E0"^^<http://www.w3.org/2001/XMLSchema#double> .
<http://www.example.org/datasets/ADSL/01-701-1148> <http://www.example.org/datasets/vocab/ADSL_ITTFL> "Y" .
<http://www.example.org/datasets/ADSL/01-701-1148> <http://www.example.org/datasets/vocab/ADSL_STUDYID> "CDISCPILOT01" .
<http://www.example.org/datasets/ADSL/01-701-1148> <http://www.example.org/datasets/vocab/ADSL_BMIBLGR1> "25-<30" .
<http://www.example.org/datasets/ADSL/01-701-1148> <http://www.example.org/datasets/vocab/ADSL_TRT01P> "Xanomeline High Dose" .
<http://www.example.org/datasets/ADSL/01-701-1148> <http://www.example.org/datasets/vocab/ADSL_EDUCLVL> "15.0E0"^^<http://www.w3.org/2001/XMLSchema#double> .
<http://www.example.org/datasets/ADSL/01-701-1148> <http://www.example.org/datasets/vocab/ADSL_EFFFL> "Y" .
<http://www.example.org/datasets/ADSL/01-701-1148> <http://www.example.org/datasets/vocab/ADSL_ARM> "Xanomeline High Dose" .
<http://www.example.org/datasets/ADSL/01-701-1148> <http://www.w3.org/2000/01/rdf-schema#label> "ADSL #01-701-1148" .
<http://www.example.org/datasets/ADSL/01-701-1148> <http://www.example.org/datasets/vocab/ADSL_AGEGR1N> "1.0E0"^^<http://www.w3.org/2001/XMLSchema#double> .
<http://www.example.org/datasets/ADSL/01-701-1148> <http://www.example.org/datasets/vocab/ADSL_RFENDT> "19774.0E0"^^<http://www.w3.org/2001/XMLSchema#double> .
<http://www.example.org/datasets/ADSL/01-701-1148> <http://www.example.org/datasets/vocab/ADSL_CUMDOSE> "14040.0E0"^^<http://www.w3.org/2001/XMLSchema#double> .
<http://www.example.org/datasets/ADSL/01-701-1148> <http://www.example.org/datasets/vocab/ADSL_DCREASCD> "Completed" .
<http://www.example.org/datasets/ADSL/01-701-1148> <http://www.example.org/datasets/vocab/ADSL_BMIBL> "28.3E0"^^<http://www.w3.org/2001/XMLSchema#double> .
<http://www.example.org/datasets/ADSL/01-701-1148> <http://www.example.org/datasets/vocab/ADSL_DISCONFL> "" .
<http://www.example.org/datasets/ADSL/01-701-1148> <http://www.example.org/datasets/vocab/ADSL_DSRAEFL> "" .
<http://www.example.org/datasets/ADSL/01-701-1148> <http://www.example.org/datasets/vocab/ADSL_MMSETOT> "21.0E0"^^<http://www.w3.org/2001/XMLSchema#double> .
<http://www.example.org/datasets/ADSL/01-701-1148> <http://www.example.org/datasets/vocab/ADSL_DCDECOD> "COMPLETED" .
<http://www.example.org/datasets/ADSL/01-701-1148> <http://www.example.org/datasets/vocab/ADSL_RFENDTC> "2014-02-20" .
<http://www.example.org/datasets/ADSL/01-701-1148> <http://www.example.org/datasets/vocab/ADSL_DISONSDT> "18608.0E0"^^<http://www.w3.org/2001/XMLSchema#double> .
<http://www.example.org/datasets/ADSL/01-701-1148> <http://www.example.org/datasets/vocab/ADSL_AGEGR1> "<65" .
<http://www.example.org/datasets/ADSL/01-701-1148> <http://www.example.org/datasets/vocab/ADSL_VISIT1DT> "19584.0E0"^^<http://www.w3.org/2001/XMLSchema#double> .
<http://www.example.org/datasets/ADSL/01-701-1148> <http://www.example.org/datasets/vocab/ADSL_COMP8FL> "Y" .
<http://www.example.org/datasets/ADSL/01-701-1148> <http://www.example.org/datasets/vocab/ADSL_SUBJID> "1148" .
<http://www.example.org/datasets/ADSL/01-701-1148> <http://www.w3.org/1999/02/22-rdf-syntax-ns#type> <http://www.example.org/datasets/vocab/ADSL> .
<http://www.example.org/datasets/ADSL/01-701-1153> <http://www.example.org/datasets/vocab/ADSL_TRTSDT> "19624.0E0"^^<http://www.w3.org/2001/XMLSchema#double> .
<http://www.example.org/datasets/ADSL/01-701-1153> <http://www.example.org/datasets/vocab/ADSL_SAFFL> "Y" .
<http://www.example.org/datasets/ADSL/01-701-1153> <http://www.example.org/datasets/vocab/ADSL_TRTEDT> "19798.0E0"^^<http://www.w3.org/2001/XMLSchema#double> .
<http://www.example.org/datasets/ADSL/01-701-1153> <http://www.example.org/datasets/vocab/ADSL_DTHFL> "" .
<http://www.example.org/datasets/ADSL/01-701-1153> <http://www.example.org/datasets/vocab/ADSL_AGE> "79.0E0"^^<http://www.w3.org/2001/XMLSchema#double> .
<http://www.example.org/datasets/ADSL/01-701-1153> <http://www.example.org/datasets/vocab/ADSL_RFSTDTC> "2013-09-23" .
<http://www.example.org/datasets/ADSL/01-701-1153> <http://www.example.org/datasets/vocab/ADSL_SEX> "F" .
<http://www.example.org/datasets/ADSL/01-701-1153> <http://www.example.org/datasets/vocab/ADSL_DURDSGR1> ">=12" .
<http://www.example.org/datasets/ADSL/01-701-1153> <http://www.example.org/datasets/vocab/ADSL_TRTDUR> "175.0E0"^^<http://www.w3.org/2001/XMLSchema#double> .
<http://www.example.org/datasets/ADSL/01-701-1153> <http://www.example.org/datasets/vocab/ADSL_USUBJID> "01-701-1153" .
<http://www.example.org/datasets/ADSL/01-701-1153> <http://www.example.org/datasets/vocab/ADSL_TRT01A> "Placebo" .
<http://www.example.org/datasets/ADSL/01-701-1153> <http://www.example.org/datasets/vocab/ADSL_HEIGHTBL> "156.2E0"^^<http://www.w3.org/2001/XMLSchema#double> .
<http://www.example.org/datasets/ADSL/01-701-1153> <http://www.example.org/datasets/vocab/ADSL_ETHNIC> "NOT HISPANIC OR LATINO" .
<http://www.example.org/datasets/ADSL/01-701-1153> <http://www.example.org/datasets/vocab/ADSL_RACE> "WHITE" .
<http://www.example.org/datasets/ADSL/01-701-1153> <http://www.example.org/datasets/vocab/ADSL_TRT01AN> "0.0E0"^^<http://www.w3.org/2001/XMLSchema#double> .
<http://www.example.org/datasets/ADSL/01-701-1153> <http://www.example.org/datasets/vocab/ADSL_SITEGR1> "701" .
<http://www.example.org/datasets/ADSL/01-701-1153> <http://www.example.org/datasets/vocab/ADSL_TRT01PN> "0.0E0"^^<http://www.w3.org/2001/XMLSchema#double> .
<http://www.example.org/datasets/ADSL/01-701-1153> <http://www.example.org/datasets/vocab/ADSL_VISNUMEN> "12.0E0"^^<http://www.w3.org/2001/XMLSchema#double> .
<http://www.example.org/datasets/ADSL/01-701-1153> <http://www.example.org/datasets/vocab/ADSL_AGEU> "YEARS" .
<http://www.example.org/datasets/ADSL/01-701-1153> <http://www.example.org/datasets/vocab/ADSL_COMP16FL> "Y" .
<http://www.example.org/datasets/ADSL/01-701-1153> <http://www.example.org/datasets/vocab/ADSL_AVGDD> "0.0E0"^^<http://www.w3.org/2001/XMLSchema#double> .
<http://www.example.org/datasets/ADSL/01-701-1153> <http://www.example.org/datasets/vocab/ADSL_SITEID> "701" .
<http://www.example.org/datasets/ADSL/01-701-1153> <http://www.example.org/datasets/vocab/ADSL_WEIGHTBL> "58.1E0"^^<http://www.w3.org/2001/XMLSchema#double> .
<http://www.example.org/datasets/ADSL/01-701-1153> <http://www.example.org/datasets/vocab/ADSL_COMP24FL> "Y" .
<http://www.example.org/datasets/ADSL/01-701-1153> <http://www.example.org/datasets/vocab/ADSL_DURDIS> "99.8E0"^^<http://www.w3.org/2001/XMLSchema#double> .
<http://www.example.org/datasets/ADSL/01-701-1153> <http://www.example.org/datasets/vocab/ADSL_RACEN> "1.0E0"^^<http://www.w3.org/2001/XMLSchema#double> .
<http://www.example.org/datasets/ADSL/01-701-1153> <http://www.example.org/datasets/vocab/ADSL_ITTFL> "Y" .
<http://www.example.org/datasets/ADSL/01-701-1153> <http://www.example.org/datasets/vocab/ADSL_STUDYID> "CDISCPILOT01" .
<http://www.example.org/datasets/ADSL/01-701-1153> <http://www.example.org/datasets/vocab/ADSL_BMIBLGR1> "<25" .
<http://www.example.org/datasets/ADSL/01-701-1153> <http://www.example.org/datasets/vocab/ADSL_TRT01P> "Placebo" .
<http://www.example.org/datasets/ADSL/01-701-1153> <http://www.example.org/datasets/vocab/ADSL_EDUCLVL> "6.0E0"^^<http://www.w3.org/2001/XMLSchema#double> .
<http://www.example.org/datasets/ADSL/01-701-1153> <http://www.example.org/datasets/vocab/ADSL_EFFFL> "Y" .
<http://www.example.org/datasets/ADSL/01-701-1153> <http://www.example.org/datasets/vocab/ADSL_ARM> "Placebo" .
<http://www.example.org/datasets/ADSL/01-701-1153> <http://www.w3.org/2000/01/rdf-schema#label> "ADSL #01-701-1153" .
<http://www.example.org/datasets/ADSL/01-701-1153> <http://www.example.org/datasets/vocab/ADSL_AGEGR1N> "2.0E0"^^<http://www.w3.org/2001/XMLSchema#double> .
<http://www.example.org/datasets/ADSL/01-701-1153> <http://www.example.org/datasets/vocab/ADSL_RFENDT> "19814.0E0"^^<http://www.w3.org/2001/XMLSchema#double> .
<http://www.example.org/datasets/ADSL/01-701-1153> <http://www.example.org/datasets/vocab/ADSL_CUMDOSE> "0.0E0"^^<http://www.w3.org/2001/XMLSchema#double> .
<http://www.example.org/datasets/ADSL/01-701-1153> <http://www.example.org/datasets/vocab/ADSL_DCREASCD> "Completed" .
<http://www.example.org/datasets/ADSL/01-701-1153> <http://www.example.org/datasets/vocab/ADSL_BMIBL> "23.8E0"^^<http://www.w3.org/2001/XMLSchema#double> .
<http://www.example.org/datasets/ADSL/01-701-1153> <http://www.example.org/datasets/vocab/ADSL_DISCONFL> "" .
<http://www.example.org/datasets/ADSL/01-701-1153> <http://www.example.org/datasets/vocab/ADSL_DSRAEFL> "" .
<http://www.example.org/datasets/ADSL/01-701-1153> <http://www.example.org/datasets/vocab/ADSL_MMSETOT> "10.0E0"^^<http://www.w3.org/2001/XMLSchema#double> .
<http://www.example.org/datasets/ADSL/01-701-1153> <http://www.example.org/datasets/vocab/ADSL_DCDECOD> "COMPLETED" .
<http://www.example.org/datasets/ADSL/01-701-1153> <http://www.example.org/datasets/vocab/ADSL_RFENDTC> "2014-04-01" .
<http://www.example.org/datasets/ADSL/01-701-1153> <http://www.example.org/datasets/vocab/ADSL_DISONSDT> "16569.0E0"^^<http://www.w3.org/2001/XMLSchema#double> .
<http://www.example.org/datasets/ADSL/01-701-1153> <http://www.example.org/datasets/vocab/ADSL_AGEGR1> "65-80" .
<http://www.example.org/datasets/ADSL/01-701-1153> <http://www.example.org/datasets/vocab/ADSL_VISIT1DT> "19607.0E0"^^<http://www.w3.org/2001/XMLSchema#double> .
<http://www.example.org/datasets/ADSL/01-701-1153> <http://www.example.org/datasets/vocab/ADSL_COMP8FL> "Y" .
<http://www.example.org/datasets/ADSL/01-701-1153> <http://www.example.org/datasets/vocab/ADSL_SUBJID> "1153" .
<http://www.example.org/datasets/ADSL/01-701-1153> <http://www.w3.org/1999/02/22-rdf-syntax-ns#type> <http://www.example.org/datasets/vocab/ADSL> .
<http://www.example.org/datasets/ADSL/01-701-1180> <http://www.example.org/datasets/vocab/ADSL_TRTSDT> "19401.0E0"^^<http://www.w3.org/2001/XMLSchema#double> .
<http://www.example.org/datasets/ADSL/01-701-1180> <http://www.example.org/datasets/vocab/ADSL_SAFFL> "Y" .
<http://www.example.org/datasets/ADSL/01-701-1180> <http://www.example.org/datasets/vocab/ADSL_TRTEDT> "19435.0E0"^^<http://www.w3.org/2001/XMLSchema#double> .
<http://www.example.org/datasets/ADSL/01-701-1180> <http://www.example.org/datasets/vocab/ADSL_DTHFL> "" .
<http://www.example.org/datasets/ADSL/01-701-1180> <http://www.example.org/datasets/vocab/ADSL_AGE> "56.0E0"^^<http://www.w3.org/2001/XMLSchema#double> .
<http://www.example.org/datasets/ADSL/01-701-1180> <http://www.example.org/datasets/vocab/ADSL_RFSTDTC> "2013-02-12" .
<http://www.example.org/datasets/ADSL/01-701-1180> <http://www.example.org/datasets/vocab/ADSL_SEX> "M" .
<http://www.example.org/datasets/ADSL/01-701-1180> <http://www.example.org/datasets/vocab/ADSL_DURDSGR1> ">=12" .
<http://www.example.org/datasets/ADSL/01-701-1180> <http://www.example.org/datasets/vocab/ADSL_TRTDUR> "35.0E0"^^<http://www.w3.org/2001/XMLSchema#double> .
<http://www.example.org/datasets/ADSL/01-701-1180> <http://www.example.org/datasets/vocab/ADSL_USUBJID> "01-701-1180" .
<http://www.example.org/datasets/ADSL/01-701-1180> <http://www.example.org/datasets/vocab/ADSL_TRT01A> "Xanomeline High Dose" .
<http://www.example.org/datasets/ADSL/01-701-1180> <http://www.example.org/datasets/vocab/ADSL_HEIGHTBL> "180.3E0"^^<http://www.w3.org/2001/XMLSchema#double> .
<http://www.example.org/datasets/ADSL/01-701-1180> <http://www.example.org/datasets/vocab/ADSL_ETHNIC> "NOT HISPANIC OR LATINO" .
<http://www.example.org/datasets/ADSL/01-701-1180> <http://www.example.org/datasets/vocab/ADSL_RACE> "WHITE" .
<http://www.example.org/datasets/ADSL/01-701-1180> <http://www.example.org/datasets/vocab/ADSL_TRT01AN> "81.0E0"^^<http://www.w3.org/2001/XMLSchema#double> .
<http://www.example.org/datasets/ADSL/01-701-1180> <http://www.example.org/datasets/vocab/ADSL_SITEGR1> "701" .
<http://www.example.org/datasets/ADSL/01-701-1180> <http://www.example.org/datasets/vocab/ADSL_TRT01PN> "81.0E0"^^<http://www.w3.org/2001/XMLSchema#double> .
<http://www.example.org/datasets/ADSL/01-701-1180> <http://www.example.org/datasets/vocab/ADSL_VISNUMEN> "7.0E0"^^<http://www.w3.org/2001/XMLSchema#double> .
<http://www.example.org/datasets/ADSL/01-701-1180> <http://www.example.org/datasets/vocab/ADSL_AGEU> "YEARS" .
<http://www.example.org/datasets/ADSL/01-701-1180> <http://www.example.org/datasets/vocab/ADSL_COMP16FL> "N" .
<http://www.example.org/datasets/ADSL/01-701-1180> <http://www.example.org/datasets/vocab/ADSL_AVGDD> "70.2E0"^^<http://www.w3.org/2001/XMLSchema#double> .
<http://www.example.org/datasets/ADSL/01-701-1180> <http://www.example.org/datasets/vocab/ADSL_SITEID> "701" .
<http://www.example.org/datasets/ADSL/01-701-1180> <http://www.example.org/datasets/vocab/ADSL_WEIGHTBL> "89.8E0"^^<http://www.w3.org/2001/XMLSchema#double> .
<http://www.example.org/datasets/ADSL/01-701-1180> <http://www.example.org/datasets/vocab/ADSL_COMP24FL> "N" .
<http://www.example.org/datasets/ADSL/01-701-1180> <http://www.example.org/datasets/vocab/ADSL_DURDIS> "52.3E0"^^<http://www.w3.org/2001/XMLSchema#double> .
<http://www.example.org/datasets/ADSL/01-701-1180> <http://www.example.org/datasets/vocab/ADSL_RACEN> "1.0E0"^^<http://www.w3.org/2001/XMLSchema#double> .
<http://www.example.org/datasets/ADSL/01-701-1180> <http://www.example.org/datasets/vocab/ADSL_ITTFL> "Y" .
<http://www.example.org/datasets/ADSL/01-701-1180> <http://www.example.org/datasets/vocab/ADSL_STUDYID> "CDISCPILOT01" .
<http://www.example.org/datasets/ADSL/01-701-1180> <http://www.example.org/datasets/vocab/ADSL_BMIBLGR1> "25-<30" .
<http://www.example.org/datasets/ADSL/01-701-1180> <http://www.example.org/datasets/vocab/ADSL_TRT01P> "Xanomeline High Dose" .
<http://www.example.org/datasets/ADSL/01-701-1180> <http://www.example.org/datasets/vocab/ADSL_EDUCLVL> "16.0E0"^^<http://www.w3.org/2001/XMLSchema#double> .
<http://www.example.org/datasets/ADSL/01-701-1180> <http://www.example.org/datasets/vocab/ADSL_EFFFL> "Y" .
<http://www.example.org/datasets/ADSL/01-701-1180> <http://www.example.org/datasets/vocab/ADSL_ARM> "Xanomeline High Dose" .
<http://www.example.org/datasets/ADSL/01-701-1180> <http://www.w3.org/2000/01/rdf-schema#label> "ADSL #01-701-1180" .
<http://www.example.org/datasets/ADSL/01-701-1180> <http://www.example.org/datasets/vocab/ADSL_AGEGR1N> "1.0E0"^^<http://www.w3.org/2001/XMLSchema#double> .
<http://www.example.org/datasets/ADSL/01-701-1180> <http://www.example.org/datasets/vocab/ADSL_RFENDT> "19440.0E0"^^<http://www.w3.org/2001/XMLSchema#double> .
<http://www.example.org/datasets/ADSL/01-701-1180> <http://www.example.org/datasets/vocab/ADSL_CUMDOSE> "2457.0E0"^^<http://www.w3.org/2001/XMLSchema#double> .
<http://www.example.org/datasets/ADSL/01-701-1180> <http://www.example.org/datasets/vocab/ADSL_DCREASCD> "Adverse Event" .
<http://www.example.org/datasets/ADSL/01-701-1180> <http://www.example.org/datasets/vocab/ADSL_BMIBL> "27.6E0"^^<http://www.w3.org/2001/XMLSchema#double> .
<http://www.example.org/datasets/ADSL/01-701-1180> <http://www.example.org/datasets/vocab/ADSL_DISCONFL> "Y" .
<http://www.example.org/datasets/ADSL/01-701-1180> <http://www.example.org/datasets/vocab/ADSL_DSRAEFL> "Y" .
<http://www.example.org/datasets/ADSL/01-701-1180> <http://www.example.org/datasets/vocab/ADSL_MMSETOT> "19.0E0"^^<http://www.w3.org/2001/XMLSchema#double> .
<http://www.example.org/datasets/ADSL/01-701-1180> <http://www.example.org/datasets/vocab/ADSL_DCDECOD> "ADVERSE EVENT" .
<http://www.example.org/datasets/ADSL/01-701-1180> <http://www.example.org/datasets/vocab/ADSL_RFENDTC> "2013-03-23" .
<http://www.example.org/datasets/ADSL/01-701-1180> <http://www.example.org/datasets/vocab/ADSL_DISONSDT> "17796.0E0"^^<http://www.w3.org/2001/XMLSchema#double> .
<http://www.example.org/datasets/ADSL/01-701-1180> <http://www.example.org/datasets/vocab/ADSL_AGEGR1> "<65" .
<http://www.example.org/datasets/ADSL/01-701-1180> <http://www.example.org/datasets/vocab/ADSL_VISIT1DT> "19386.0E0"^^<http://www.w3.org/2001/XMLSchema#double> .
<http://www.example.org/datasets/ADSL/01-701-1180> <http://www.example.org/datasets/vocab/ADSL_COMP8FL> "N" .
<http://www.example.org/datasets/ADSL/01-701-1180> <http://www.example.org/datasets/vocab/ADSL_SUBJID> "1180" .
<http://www.example.org/datasets/ADSL/01-701-1180> <http://www.w3.org/1999/02/22-rdf-syntax-ns#type> <http://www.example.org/datasets/vocab/ADSL> .
<http://www.example.org/datasets/ADSL/01-701-1181> <http://www.example.org/datasets/vocab/ADSL_TRTSDT> "19697.0E0"^^<http://www.w3.org/2001/XMLSchema#double> .
<http://www.example.org/datasets/ADSL/01-701-1181> <http://www.example.org/datasets/vocab/ADSL_SAFFL> "Y" .
<http://www.example.org/datasets/ADSL/01-701-1181> <http://www.example.org/datasets/vocab/ADSL_TRTEDT> "19701.0E0"^^<http://www.w3.org/2001/XMLSchema#double> .
<http://www.example.org/datasets/ADSL/01-701-1181> <http://www.example.org/datasets/vocab/ADSL_DTHFL> "" .
<http://www.example.org/datasets/ADSL/01-701-1181> <http://www.example.org/datasets/vocab/ADSL_AGE> "79.0E0"^^<http://www.w3.org/2001/XMLSchema#double> .
<http://www.example.org/datasets/ADSL/01-701-1181> <http://www.example.org/datasets/vocab/ADSL_RFSTDTC> "2013-12-05" .
<http://www.example.org/datasets/ADSL/01-701-1181> <http://www.example.org/datasets/vocab/ADSL_SEX> "F" .
<http://www.example.org/datasets/ADSL/01-701-1181> <http://www.example.org/datasets/vocab/ADSL_DURDSGR1> ">=12" .
<http://www.example.org/datasets/ADSL/01-701-1181> <http://www.example.org/datasets/vocab/ADSL_TRTDUR> "5.0E0"^^<http://www.w3.org/2001/XMLSchema#double> .
<http://www.example.org/datasets/ADSL/01-701-1181> <http://www.example.org/datasets/vocab/ADSL_USUBJID> "01-701-1181" .
<http://www.example.org/datasets/ADSL/01-701-1181> <http://www.example.org/datasets/vocab/ADSL_TRT01A> "Xanomeline High Dose" .
<http://www.example.org/datasets/ADSL/01-701-1181> <http://www.example.org/datasets/vocab/ADSL_HEIGHTBL> "154.9E0"^^<http://www.w3.org/2001/XMLSchema#double> .
<http://www.example.org/datasets/ADSL/01-701-1181> <http://www.example.org/datasets/vocab/ADSL_ETHNIC> "NOT HISPANIC OR LATINO" .
<http://www.example.org/datasets/ADSL/01-701-1181> <http://www.example.org/datasets/vocab/ADSL_RACE> "WHITE" .
<http://www.example.org/datasets/ADSL/01-701-1181> <http://www.example.org/datasets/vocab/ADSL_TRT01AN> "81.0E0"^^<http://www.w3.org/2001/XMLSchema#double> .
<http://www.example.org/datasets/ADSL/01-701-1181> <http://www.example.org/datasets/vocab/ADSL_SITEGR1> "701" .
<http://www.example.org/datasets/ADSL/01-701-1181> <http://www.example.org/datasets/vocab/ADSL_TRT01PN> "81.0E0"^^<http://www.w3.org/2001/XMLSchema#double> .
<http://www.example.org/datasets/ADSL/01-701-1181> <http://www.example.org/datasets/vocab/ADSL_VISNUMEN> "4.0E0"^^<http://www.w3.org/2001/XMLSchema#double> .
<http://www.example.org/datasets/ADSL/01-701-1181> <http://www.example.org/datasets/vocab/ADSL_AGEU> "YEARS" .
<http://www.example.org/datasets/ADSL/01-701-1181> <http://www.example.org/datasets/vocab/ADSL_COMP16FL> "N" .
<http://www.example.org/datasets/ADSL/01-701-1181> <http://www.example.org/datasets/vocab/ADSL_AVGDD> "54.0E0"^^<http://www.w3.org/2001/XMLSchema#double> .
<http://www.example.org/datasets/ADSL/01-701-1181> <http://www.example.org/datasets/vocab/ADSL_SITEID> "701" .
<http://www.example.org/datasets/ADSL/01-701-1181> <http://www.example.org/datasets/vocab/ADSL_WEIGHTBL> "66.7E0"^^<http://www.w3.org/2001/XMLSchema#double> .
<http://www.example.org/datasets/ADSL/01-701-1181> <http://www.example.org/datasets/vocab/ADSL_COMP24FL> "N" .
<http://www.example.org/datasets/ADSL/01-701-1181> <http://www.example.org/datasets/vocab/ADSL_DURDIS> "63.0E0"^^<http://www.w3.org/2001/XMLSchema#double> .
<http://www.example.org/datasets/ADSL/01-701-1181> <http://www.example.org/datasets/vocab/ADSL_RACEN> "1.0E0"^^<http://www.w3.org/2001/XMLSchema#double> .
<http://www.example.org/datasets/ADSL/01-701-1181> <http://www.example.org/datasets/vocab/ADSL_ITTFL> "Y" .
<http://www.example.org/datasets/ADSL/01-701-1181> <http://www.example.org/datasets/vocab/ADSL_STUDYID> "CDISCPILOT01" .
<http://www.example.org/datasets/ADSL/01-701-1181> <http://www.example.org/datasets/vocab/ADSL_BMIBLGR1> "25-<30" .
<http://www.example.org/datasets/ADSL/01-701-1181> <http://www.example.org/datasets/vocab/ADSL_TRT01P> "Xanomeline High Dose" .
<http://www.example.org/datasets/ADSL/01-701-1181> <http://www.example.org/datasets/vocab/ADSL_EDUCLVL> "15.0E0"^^<http://www.w3.org/2001/XMLSchema#double> .
<http://www.example.org/datasets/ADSL/01-701-1181> <http://www.example.org/datasets/vocab/ADSL_EFFFL> "Y" .
<http://www.example.org/datasets/ADSL/01-701-1181> <http://www.example.org/datasets/vocab/ADSL_ARM> "Xanomeline High Dose" .
<http://www.example.org/datasets/ADSL/01-701-1181> <http://www.w3.org/2000/01/rdf-schema#label> "ADSL #01-701-1181" .
<http://www.example.org/datasets/ADSL/01-701-1181> <http://www.example.org/datasets/vocab/ADSL_AGEGR1N> "2.0E0"^^<http://www.w3.org/2001/XMLSchema#double> .
<http://www.example.org/datasets/ADSL/01-701-1181> <http://www.example.org/datasets/vocab/ADSL_RFENDT> "19704.0E0"^^<http://www.w3.org/2001/XMLSchema#double> .
<http://www.example.org/datasets/ADSL/01-701-1181> <http://www.example.org/datasets/vocab/ADSL_CUMDOSE> "270.0E0"^^<http://www.w3.org/2001/XMLSchema#double> .
<http://www.example.org/datasets/ADSL/01-701-1181> <http://www.example.org/datasets/vocab/ADSL_DCREASCD> "Adverse Event" .
<http://www.example.org/datasets/ADSL/01-701-1181> <http://www.example.org/datasets/vocab/ADSL_BMIBL> "27.8E0"^^<http://www.w3.org/2001/XMLSchema#double> .
<http://www.example.org/datasets/ADSL/01-701-1181> <http://www.example.org/datasets/vocab/ADSL_DISCONFL> "Y" .
<http://www.example.org/datasets/ADSL/01-701-1181> <http://www.example.org/datasets/vocab/ADSL_DSRAEFL> "Y" .
<http://www.example.org/datasets/ADSL/01-701-1181> <http://www.example.org/datasets/vocab/ADSL_MMSETOT> "10.0E0"^^<http://www.w3.org/2001/XMLSchema#double> .
<http://www.example.org/datasets/ADSL/01-701-1181> <http://www.example.org/datasets/vocab/ADSL_DCDECOD> "ADVERSE EVENT" .
<http://www.example.org/datasets/ADSL/01-701-1181> <http://www.example.org/datasets/vocab/ADSL_RFENDTC> "2013-12-12" .
<http://www.example.org/datasets/ADSL/01-701-1181> <http://www.example.org/datasets/vocab/ADSL_DISONSDT> "17770.0E0"^^<http://www.w3.org/2001/XMLSchema#double> .
<http://www.example.org/datasets/ADSL/01-701-1181> <http://www.example.org/datasets/vocab/ADSL_AGEGR1> "65-80" .
<http://www.example.org/datasets/ADSL/01-701-1181> <http://www.example.org/datasets/vocab/ADSL_VISIT1DT> "19688.0E0"^^<http://www.w3.org/2001/XMLSchema#double> .
<http://www.example.org/datasets/ADSL/01-701-1181> <http://www.example.org/datasets/vocab/ADSL_COMP8FL> "N" .
<http://www.example.org/datasets/ADSL/01-701-1181> <http://www.example.org/datasets/vocab/ADSL_SUBJID> "1181" .
<http://www.example.org/datasets/ADSL/01-701-1181> <http://www.w3.org/1999/02/22-rdf-syntax-ns#type> <http://www.example.org/datasets/vocab/ADSL> .
<http://www.example.org/datasets/ADSL/01-701-1188> <http://www.example.org/datasets/vocab/ADSL_TRTSDT> "19404.0E0"^^<http://www.w3.org/2001/XMLSchema#double> .
<http://www.example.org/datasets/ADSL/01-701-1188> <http://www.example.org/datasets/vocab/ADSL_SAFFL> "Y" .
<http://www.example.org/datasets/ADSL/01-701-1188> <http://www.example.org/datasets/vocab/ADSL_TRTEDT> "19441.0E0"^^<http://www.w3.org/2001/XMLSchema#double> .
<http://www.example.org/datasets/ADSL/01-701-1188> <http://www.example.org/datasets/vocab/ADSL_DTHFL> "" .
<http://www.example.org/datasets/ADSL/01-701-1188> <http://www.example.org/datasets/vocab/ADSL_AGE> "71.0E0"^^<http://www.w3.org/2001/XMLSchema#double> .
<http://www.example.org/datasets/ADSL/01-701-1188> <http://www.example.org/datasets/vocab/ADSL_RFSTDTC> "2013-02-15" .
<http://www.example.org/datasets/ADSL/01-701-1188> <http://www.example.org/datasets/vocab/ADSL_SEX> "M" .
<http://www.example.org/datasets/ADSL/01-701-1188> <http://www.example.org/datasets/vocab/ADSL_DURDSGR1> ">=12" .
<http://www.example.org/datasets/ADSL/01-701-1188> <http://www.example.org/datasets/vocab/ADSL_TRTDUR> "38.0E0"^^<http://www.w3.org/2001/XMLSchema#double> .
<http://www.example.org/datasets/ADSL/01-701-1188> <http://www.example.org/datasets/vocab/ADSL_USUBJID> "01-701-1188" .
<http://www.example.org/datasets/ADSL/01-701-1188> <http://www.example.org/datasets/vocab/ADSL_TRT01A> "Xanomeline Low Dose" .
<http://www.example.org/datasets/ADSL/01-701-1188> <http://www.example.org/datasets/vocab/ADSL_HEIGHTBL> "177.8E0"^^<http://www.w3.org/2001/XMLSchema#double> .
<http://www.example.org/datasets/ADSL/01-701-1188> <http://www.example.org/datasets/vocab/ADSL_ETHNIC> "NOT HISPANIC OR LATINO" .
<http://www.example.org/datasets/ADSL/01-701-1188> <http://www.example.org/datasets/vocab/ADSL_RACE> "WHITE" .
<http://www.example.org/datasets/ADSL/01-701-1188> <http://www.example.org/datasets/vocab/ADSL_TRT01AN> "54.0E0"^^<http://www.w3.org/2001/XMLSchema#double> .
<http://www.example.org/datasets/ADSL/01-701-1188> <http://www.example.org/datasets/vocab/ADSL_SITEGR1> "701" .
<http://www.example.org/datasets/ADSL/01-701-1188> <http://www.example.org/datasets/vocab/ADSL_TRT01PN> "54.0E0"^^<http://www.w3.org/2001/XMLSchema#double> .
<http://www.example.org/datasets/ADSL/01-701-1188> <http://www.example.org/datasets/vocab/ADSL_VISNUMEN> "7.0E0"^^<http://www.w3.org/2001/XMLSchema#double> .
<http://www.example.org/datasets/ADSL/01-701-1188> <http://www.example.org/datasets/vocab/ADSL_AGEU> "YEARS" .
<http://www.example.org/datasets/ADSL/01-701-1188> <http://www.example.org/datasets/vocab/ADSL_COMP16FL> "N" .
<http://www.example.org/datasets/ADSL/01-701-1188> <http://www.example.org/datasets/vocab/ADSL_AVGDD> "54.0E0"^^<http://www.w3.org/2001/XMLSchema#double> .
<http://www.example.org/datasets/ADSL/01-701-1188> <http://www.example.org/datasets/vocab/ADSL_SITEID> "701" .
<http://www.example.org/datasets/ADSL/01-701-1188> <http://www.example.org/datasets/vocab/ADSL_WEIGHTBL> "101.2E0"^^<http://www.w3.org/2001/XMLSchema#double> .
<http://www.example.org/datasets/ADSL/01-701-1188> <http://www.example.org/datasets/vocab/ADSL_COMP24FL> "N" .
<http://www.example.org/datasets/ADSL/01-701-1188> <http://www.example.org/datasets/vocab/ADSL_DURDIS> "88.7E0"^^<http://www.w3.org/2001/XMLSchema#double> .
<http://www.example.org/datasets/ADSL/01-701-1188> <http://www.example.org/datasets/vocab/ADSL_RACEN> "1.0E0"^^<http://www.w3.org/2001/XMLSchema#double> .
<http://www.example.org/datasets/ADSL/01-701-1188> <http://www.example.org/datasets/vocab/ADSL_ITTFL> "Y" .
<http://www.example.org/datasets/ADSL/01-701-1188> <http://www.example.org/datasets/vocab/ADSL_STUDYID> "CDISCPILOT01" .
<http://www.example.org/datasets/ADSL/01-701-1188> <http://www.example.org/datasets/vocab/ADSL_BMIBLGR1> ">=30" .
<http://www.example.org/datasets/ADSL/01-701-1188> <http://www.example.org/datasets/vocab/ADSL_TRT01P> "Xanomeline Low Dose" .
<http://www.example.org/datasets/ADSL/01-701-1188> <http://www.example.org/datasets/vocab/ADSL_EDUCLVL> "16.0E0"^^<http://www.w3.org/2001/XMLSchema#double> .
<http://www.example.org/datasets/ADSL/01-701-1188> <http://www.example.org/datasets/vocab/ADSL_EFFFL> "Y" .
<http://www.example.org/datasets/ADSL/01-701-1188> <http://www.example.org/datasets/vocab/ADSL_ARM> "Xanomeline Low Dose" .
<http://www.example.org/datasets/ADSL/01-701-1188> <http://www.w3.org/2000/01/rdf-schema#label> "ADSL #01-701-1188" .
<http://www.example.org/datasets/ADSL/01-701-1188> <http://www.example.org/datasets/vocab/ADSL_AGEGR1N> "2.0E0"^^<http://www.w3.org/2001/XMLSchema#double> .
<http://www.example.org/datasets/ADSL/01-701-1188> <http://www.example.org/datasets/vocab/ADSL_RFENDT> "19442.0E0"^^<http://www.w3.org/2001/XMLSchema#double> .
<http://www.example.org/datasets/ADSL/01-701-1188> <http://www.example.org/datasets/vocab/ADSL_CUMDOSE> "2052.0E0"^^<http://www.w3.org/2001/XMLSchema#double> .
<http://www.example.org/datasets/ADSL/01-701-1188> <http://www.example.org/datasets/vocab/ADSL_DCREASCD> "Adverse Event" .
<http://www.example.org/datasets/ADSL/01-701-1188> <http://www.example.org/datasets/vocab/ADSL_BMIBL> "32.0E0"^^<http://www.w3.org/2001/XMLSchema#double> .
<http://www.example.org/datasets/ADSL/01-701-1188> <http://www.example.org/datasets/vocab/ADSL_DISCONFL> "Y" .
<http://www.example.org/datasets/ADSL/01-701-1188> <http://www.example.org/datasets/vocab/ADSL_DSRAEFL> "Y" .
<http://www.example.org/datasets/ADSL/01-701-1188> <http://www.example.org/datasets/vocab/ADSL_MMSETOT> "23.0E0"^^<http://www.w3.org/2001/XMLSchema#double> .
<http://www.example.org/datasets/ADSL/01-701-1188> <http://www.example.org/datasets/vocab/ADSL_DCDECOD> "ADVERSE EVENT" .
<http://www.example.org/datasets/ADSL/01-701-1188> <http://www.example.org/datasets/vocab/ADSL_RFENDTC> "2013-03-25" .
<http://www.example.org/datasets/ADSL/01-701-1188> <http://www.example.org/datasets/vocab/ADSL_DISONSDT> "16693.0E0"^^<http://www.w3.org/2001/XMLSchema#double> .
<http://www.example.org/datasets/ADSL/01-701-1188> <http://www.example.org/datasets/vocab/ADSL_AGEGR1> "65-80" .
<http://www.example.org/datasets/ADSL/01-701-1188> <http://www.example.org/datasets/vocab/ADSL_VISIT1DT> "19392.0E0"^^<http://www.w3.org/2001/XMLSchema#double> .
<http://www.example.org/datasets/ADSL/01-701-1188> <http://www.example.org/datasets/vocab/ADSL_COMP8FL> "N" .
<http://www.example.org/datasets/ADSL/01-701-1188> <http://www.example.org/datasets/vocab/ADSL_SUBJID> "1188" .
<http://www.example.org/datasets/ADSL/01-701-1188> <http://www.w3.org/1999/02/22-rdf-syntax-ns#type> <http://www.example.org/datasets/vocab/ADSL> .
<http://www.example.org/datasets/ADSL/01-701-1192> <http://www.example.org/datasets/vocab/ADSL_TRTSDT> "19196.0E0"^^<http://www.w3.org/2001/XMLSchema#double> .
<http://www.example.org/datasets/ADSL/01-701-1192> <http://www.example.org/datasets/vocab/ADSL_SAFFL> "Y" .
<http://www.example.org/datasets/ADSL/01-701-1192> <http://www.example.org/datasets/vocab/ADSL_TRTEDT> "19378.0E0"^^<http://www.w3.org/2001/XMLSchema#double> .
<http://www.example.org/datasets/ADSL/01-701-1192> <http://www.example.org/datasets/vocab/ADSL_DTHFL> "" .
<http://www.example.org/datasets/ADSL/01-701-1192> <http://www.example.org/datasets/vocab/ADSL_AGE> "80.0E0"^^<http://www.w3.org/2001/XMLSchema#double> .
<http://www.example.org/datasets/ADSL/01-701-1192> <http://www.example.org/datasets/vocab/ADSL_RFSTDTC> "2012-07-22" .
<http://www.example.org/datasets/ADSL/01-701-1192> <http://www.example.org/datasets/vocab/ADSL_SEX> "F" .
<http://www.example.org/datasets/ADSL/01-701-1192> <http://www.example.org/datasets/vocab/ADSL_DURDSGR1> ">=12" .
<http://www.example.org/datasets/ADSL/01-701-1192> <http://www.example.org/datasets/vocab/ADSL_TRTDUR> "183.0E0"^^<http://www.w3.org/2001/XMLSchema#double> .
<http://www.example.org/datasets/ADSL/01-701-1192> <http://www.example.org/datasets/vocab/ADSL_USUBJID> "01-701-1192" .
<http://www.example.org/datasets/ADSL/01-701-1192> <http://www.example.org/datasets/vocab/ADSL_TRT01A> "Xanomeline Low Dose" .
<http://www.example.org/datasets/ADSL/01-701-1192> <http://www.example.org/datasets/vocab/ADSL_HEIGHTBL> "151.1E0"^^<http://www.w3.org/2001/XMLSchema#double> .
<http://www.example.org/datasets/ADSL/01-701-1192> <http://www.example.org/datasets/vocab/ADSL_ETHNIC> "NOT HISPANIC OR LATINO" .
<http://www.example.org/datasets/ADSL/01-701-1192> <http://www.example.org/datasets/vocab/ADSL_RACE> "WHITE" .
<http://www.example.org/datasets/ADSL/01-701-1192> <http://www.example.org/datasets/vocab/ADSL_TRT01AN> "54.0E0"^^<http://www.w3.org/2001/XMLSchema#double> .
<http://www.example.org/datasets/ADSL/01-701-1192> <http://www.example.org/datasets/vocab/ADSL_SITEGR1> "701" .
<http://www.example.org/datasets/ADSL/01-701-1192> <http://www.example.org/datasets/vocab/ADSL_TRT01PN> "54.0E0"^^<http://www.w3.org/2001/XMLSchema#double> .
<http://www.example.org/datasets/ADSL/01-701-1192> <http://www.example.org/datasets/vocab/ADSL_VISNUMEN> "12.0E0"^^<http://www.w3.org/2001/XMLSchema#double> .
<http://www.example.org/datasets/ADSL/01-701-1192> <http://www.example.org/datasets/vocab/ADSL_AGEU> "YEARS" .
<http://www.example.org/datasets/ADSL/01-701-1192> <http://www.example.org/datasets/vocab/ADSL_COMP16FL> "Y" .
<http://www.example.org/datasets/ADSL/01-701-1192> <http://www.example.org/datasets/vocab/ADSL_AVGDD> "54.0E0"^^<http://www.w3.org/2001/XMLSchema#double> .
<http://www.example.org/datasets/ADSL/01-701-1192> <http://www.example.org/datasets/vocab/ADSL_SITEID> "701" .
<http://www.example.org/datasets/ADSL/01-701-1192> <http://www.example.org/datasets/vocab/ADSL_WEIGHTBL> "63.5E0"^^<http://www.w3.org/2001/XMLSchema#double> .
<http://www.example.org/datasets/ADSL/01-701-1192> <http://www.example.org/datasets/vocab/ADSL_COMP24FL> "Y" .
<http://www.example.org/datasets/ADSL/01-701-1192> <http://www.example.org/datasets/vocab/ADSL_DURDIS> "39.8E0"^^<http://www.w3.org/2001/XMLSchema#double> .
<http://www.example.org/datasets/ADSL/01-701-1192> <http://www.example.org/datasets/vocab/ADSL_RACEN> "1.0E0"^^<http://www.w3.org/2001/XMLSchema#double> .
<http://www.example.org/datasets/ADSL/01-701-1192> <http://www.example.org/datasets/vocab/ADSL_ITTFL> "Y" .
<http://www.example.org/datasets/ADSL/01-701-1192> <http://www.example.org/datasets/vocab/ADSL_STUDYID> "CDISCPILOT01" .
<http://www.example.org/datasets/ADSL/01-701-1192> <http://www.example.org/datasets/vocab/ADSL_BMIBLGR1> "25-<30" .
<http://www.example.org/datasets/ADSL/01-701-1192> <http://www.example.org/datasets/vocab/ADSL_TRT01P> "Xanomeline Low Dose" .
<http://www.example.org/datasets/ADSL/01-701-1192> <http://www.example.org/datasets/vocab/ADSL_EDUCLVL> "12.0E0"^^<http://www.w3.org/2001/XMLSchema#double> .
<http://www.example.org/datasets/ADSL/01-701-1192> <http://www.example.org/datasets/vocab/ADSL_EFFFL> "Y" .
<http://www.example.org/datasets/ADSL/01-701-1192> <http://www.example.org/datasets/vocab/ADSL_ARM> "Xanomeline Low Dose" .
<http://www.example.org/datasets/ADSL/01-701-1192> <http://www.w3.org/2000/01/rdf-schema#label> "ADSL #01-701-1192" .
<http://www.example.org/datasets/ADSL/01-701-1192> <http://www.example.org/datasets/vocab/ADSL_AGEGR1N> "2.0E0"^^<http://www.w3.org/2001/XMLSchema#double> .
<http://www.example.org/datasets/ADSL/01-701-1192> <http://www.example.org/datasets/vocab/ADSL_RFENDT> "19378.0E0"^^<http://www.w3.org/2001/XMLSchema#double> .
<http://www.example.org/datasets/ADSL/01-701-1192> <http://www.example.org/datasets/vocab/ADSL_CUMDOSE> "9882.0E0"^^<http://www.w3.org/2001/XMLSchema#double> .
<http://www.example.org/datasets/ADSL/01-701-1192> <http://www.example.org/datasets/vocab/ADSL_DCREASCD> "Completed" .
<http://www.example.org/datasets/ADSL/01-701-1192> <http://www.example.org/datasets/vocab/ADSL_BMIBL> "27.8E0"^^<http://www.w3.org/2001/XMLSchema#double> .
<http://www.example.org/datasets/ADSL/01-701-1192> <http://www.example.org/datasets/vocab/ADSL_DISCONFL> "" .
<http://www.example.org/datasets/ADSL/01-701-1192> <http://www.example.org/datasets/vocab/ADSL_DSRAEFL> "" .
<http://www.example.org/datasets/ADSL/01-701-1192> <http://www.example.org/datasets/vocab/ADSL_MMSETOT> "23.0E0"^^<http://www.w3.org/2001/XMLSchema#double> .
<http://www.example.org/datasets/ADSL/01-701-1192> <http://www.example.org/datasets/vocab/ADSL_DCDECOD> "COMPLETED" .
<http://www.example.org/datasets/ADSL/01-701-1192> <http://www.example.org/datasets/vocab/ADSL_RFENDTC> "2013-01-20" .
<http://www.example.org/datasets/ADSL/01-701-1192> <http://www.example.org/datasets/vocab/ADSL_DISONSDT> "17971.0E0"^^<http://www.w3.org/2001/XMLSchema#double> .
<http://www.example.org/datasets/ADSL/01-701-1192> <http://www.example.org/datasets/vocab/ADSL_AGEGR1> "65-80" .
<http://www.example.org/datasets/ADSL/01-701-1192> <http://www.example.org/datasets/vocab/ADSL_VISIT1DT> "19182.0E0"^^<http://www.w3.org/2001/XMLSchema#double> .
<http://www.example.org/datasets/ADSL/01-701-1192> <http://www.example.org/datasets/vocab/ADSL_COMP8FL> "Y" .
<http://www.example.org/datasets/ADSL/01-701-1192> <http://www.example.org/datasets/vocab/ADSL_SUBJID> "1192" .
<http://www.example.org/datasets/ADSL/01-701-1192> <http://www.w3.org/1999/02/22-rdf-syntax-ns#type> <http://www.example.org/datasets/vocab/ADSL> .
<http://www.example.org/datasets/ADSL/01-701-1203> <http://www.example.org/datasets/vocab/ADSL_TRTSDT> "19391.0E0"^^<http://www.w3.org/2001/XMLSchema#double> .
<http://www.example.org/datasets/ADSL/01-701-1203> <http://www.example.org/datasets/vocab/ADSL_SAFFL> "Y" .
<http://www.example.org/datasets/ADSL/01-701-1203> <http://www.example.org/datasets/vocab/ADSL_TRTEDT> "19573.0E0"^^<http://www.w3.org/2001/XMLSchema#double> .
<http://www.example.org/datasets/ADSL/01-701-1203> <http://www.example.org/datasets/vocab/ADSL_DTHFL> "" .
<http://www.example.org/datasets/ADSL/01-701-1203> <http://www.example.org/datasets/vocab/ADSL_AGE> "81.0E0"^^<http://www.w3.org/2001/XMLSchema#double> .
<http://www.example.org/datasets/ADSL/01-701-1203> <http://www.example.org/datasets/vocab/ADSL_RFSTDTC> "2013-02-02" .
<http://www.example.org/datasets/ADSL/01-701-1203> <http://www.example.org/datasets/vocab/ADSL_SEX> "F" .
<http://www.example.org/datasets/ADSL/01-701-1203> <http://www.example.org/datasets/vocab/ADSL_DURDSGR1> ">=12" .
<http://www.example.org/datasets/ADSL/01-701-1203> <http://www.example.org/datasets/vocab/ADSL_TRTDUR> "183.0E0"^^<http://www.w3.org/2001/XMLSchema#double> .
<http://www.example.org/datasets/ADSL/01-701-1203> <http://www.example.org/datasets/vocab/ADSL_USUBJID> "01-701-1203" .
<http://www.example.org/datasets/ADSL/01-701-1203> <http://www.example.org/datasets/vocab/ADSL_TRT01A> "Placebo" .
<http://www.example.org/datasets/ADSL/01-701-1203> <http://www.example.org/datasets/vocab/ADSL_HEIGHTBL> "160.0E0"^^<http://www.w3.org/2001/XMLSchema#double> .
<http://www.example.org/datasets/ADSL/01-701-1203> <http://www.example.org/datasets/vocab/ADSL_ETHNIC> "NOT HISPANIC OR LATINO" .
<http://www.example.org/datasets/ADSL/01-701-1203> <http://www.example.org/datasets/vocab/ADSL_RACE> "BLACK OR AFRICAN AMERICAN" .
<http://www.example.org/datasets/ADSL/01-701-1203> <http://www.example.org/datasets/vocab/ADSL_TRT01AN> "0.0E0"^^<http://www.w3.org/2001/XMLSchema#double> .
<http://www.example.org/datasets/ADSL/01-701-1203> <http://www.example.org/datasets/vocab/ADSL_SITEGR1> "701" .
<http://www.example.org/datasets/ADSL/01-701-1203> <http://www.example.org/datasets/vocab/ADSL_TRT01PN> "0.0E0"^^<http://www.w3.org/2001/XMLSchema#double> .
<http://www.example.org/datasets/ADSL/01-701-1203> <http://www.example.org/datasets/vocab/ADSL_VISNUMEN> "12.0E0"^^<http://www.w3.org/2001/XMLSchema#double> .
<http://www.example.org/datasets/ADSL/01-701-1203> <http://www.example.org/datasets/vocab/ADSL_AGEU> "YEARS" .
<http://www.example.org/datasets/ADSL/01-701-1203> <http://www.example.org/datasets/vocab/ADSL_COMP16FL> "Y" .
<http://www.example.org/datasets/ADSL/01-701-1203> <http://www.example.org/datasets/vocab/ADSL_AVGDD> "0.0E0"^^<http://www.w3.org/2001/XMLSchema#double> .
<http://www.example.org/datasets/ADSL/01-701-1203> <http://www.example.org/datasets/vocab/ADSL_SITEID> "701" .
<http://www.example.org/datasets/ADSL/01-701-1203> <http://www.example.org/datasets/vocab/ADSL_WEIGHTBL> "66.2E0"^^<http://www.w3.org/2001/XMLSchema#double> .
<http://www.example.org/datasets/ADSL/01-701-1203> <http://www.example.org/datasets/vocab/ADSL_COMP24FL> "Y" .
<http://www.example.org/datasets/ADSL/01-701-1203> <http://www.example.org/datasets/vocab/ADSL_DURDIS> "21.3E0"^^<http://www.w3.org/2001/XMLSchema#double> .
<http://www.example.org/datasets/ADSL/01-701-1203> <http://www.example.org/datasets/vocab/ADSL_RACEN> "2.0E0"^^<http://www.w3.org/2001/XMLSchema#double> .
<http://www.example.org/datasets/ADSL/01-701-1203> <http://www.example.org/datasets/vocab/ADSL_ITTFL> "Y" .
<http://www.example.org/datasets/ADSL/01-701-1203> <http://www.example.org/datasets/vocab/ADSL_STUDYID> "CDISCPILOT01" .
<http://www.example.org/datasets/ADSL/01-701-1203> <http://www.example.org/datasets/vocab/ADSL_BMIBLGR1> "25-<30" .
<http://www.example.org/datasets/ADSL/01-701-1203> <http://www.example.org/datasets/vocab/ADSL_TRT01P> "Placebo" .
<http://www.example.org/datasets/ADSL/01-701-1203> <http://www.example.org/datasets/vocab/ADSL_EDUCLVL> "13.0E0"^^<http://www.w3.org/2001/XMLSchema#double> .
<http://www.example.org/datasets/ADSL/01-701-1203> <http://www.example.org/datasets/vocab/ADSL_EFFFL> "Y" .
<http://www.example.org/datasets/ADSL/01-701-1203> <http://www.example.org/datasets/vocab/ADSL_ARM> "Placebo" .
<http://www.example.org/datasets/ADSL/01-701-1203> <http://www.w3.org/2000/01/rdf-schema#label> "ADSL #01-701-1203" .
<http://www.example.org/datasets/ADSL/01-701-1203> <http://www.example.org/datasets/vocab/ADSL_AGEGR1N> "3.0E0"^^<http://www.w3.org/2001/XMLSchema#double> .
<http://www.example.org/datasets/ADSL/01-701-1203> <http://www.example.org/datasets/vocab/ADSL_RFENDT> "19573.0E0"^^<http://www.w3.org/2001/XMLSchema#double> .
<http://www.example.org/datasets/ADSL/01-701-1203> <http://www.example.org/datasets/vocab/ADSL_CUMDOSE> "0.0E0"^^<http://www.w3.org/2001/XMLSchema#double> .
<http://www.example.org/datasets/ADSL/01-701-1203> <http://www.example.org/datasets/vocab/ADSL_DCREASCD> "Completed" .
<http://www.example.org/datasets/ADSL/01-701-1203> <http://www.example.org/datasets/vocab/ADSL_BMIBL> "25.9E0"^^<http://www.w3.org/2001/XMLSchema#double> .
<http://www.example.org/datasets/ADSL/01-701-1203> <http://www.example.org/datasets/vocab/ADSL_DISCONFL> "" .
<http://www.example.org/datasets/ADSL/01-701-1203> <http://www.example.org/datasets/vocab/ADSL_DSRAEFL> "" .
<http://www.example.org/datasets/ADSL/01-701-1203> <http://www.example.org/datasets/vocab/ADSL_MMSETOT> "21.0E0"^^<http://www.w3.org/2001/XMLSchema#double> .
<http://www.example.org/datasets/ADSL/01-701-1203> <http://www.example.org/datasets/vocab/ADSL_DCDECOD> "COMPLETED" .
<http://www.example.org/datasets/ADSL/01-701-1203> <http://www.example.org/datasets/vocab/ADSL_RFENDTC> "2013-08-03" .
<http://www.example.org/datasets/ADSL/01-701-1203> <http://www.example.org/datasets/vocab/ADSL_DISONSDT> "18736.0E0"^^<http://www.w3.org/2001/XMLSchema#double> .
<http://www.example.org/datasets/ADSL/01-701-1203> <http://www.example.org/datasets/vocab/ADSL_AGEGR1> ">80" .
<http://www.example.org/datasets/ADSL/01-701-1203> <http://www.example.org/datasets/vocab/ADSL_VISIT1DT> "19383.0E0"^^<http://www.w3.org/2001/XMLSchema#double> .
<http://www.example.org/datasets/ADSL/01-701-1203> <http://www.example.org/datasets/vocab/ADSL_COMP8FL> "Y" .
<http://www.example.org/datasets/ADSL/01-701-1203> <http://www.example.org/datasets/vocab/ADSL_SUBJID> "1203" .
<http://www.example.org/datasets/ADSL/01-701-1203> <http://www.w3.org/1999/02/22-rdf-syntax-ns#type> <http://www.example.org/datasets/vocab/ADSL> .
<http://www.example.org/datasets/ADSL/01-701-1211> <http://www.example.org/datasets/vocab/ADSL_TRTSDT> "19312.0E0"^^<http://www.w3.org/2001/XMLSchema#double> .
<http://www.example.org/datasets/ADSL/01-701-1211> <http://www.example.org/datasets/vocab/ADSL_SAFFL> "Y" .
<http://www.example.org/datasets/ADSL/01-701-1211> <http://www.example.org/datasets/vocab/ADSL_TRTEDT> "19370.0E0"^^<http://www.w3.org/2001/XMLSchema#double> .
<http://www.example.org/datasets/ADSL/01-701-1211> <http://www.example.org/datasets/vocab/ADSL_DTHFL> "Y" .
<http://www.example.org/datasets/ADSL/01-701-1211> <http://www.example.org/datasets/vocab/ADSL_AGE> "76.0E0"^^<http://www.w3.org/2001/XMLSchema#double> .
<http://www.example.org/datasets/ADSL/01-701-1211> <http://www.example.org/datasets/vocab/ADSL_RFSTDTC> "2012-11-15" .
<http://www.example.org/datasets/ADSL/01-701-1211> <http://www.example.org/datasets/vocab/ADSL_SEX> "F" .
<http://www.example.org/datasets/ADSL/01-701-1211> <http://www.example.org/datasets/vocab/ADSL_DURDSGR1> ">=12" .
<http://www.example.org/datasets/ADSL/01-701-1211> <http://www.example.org/datasets/vocab/ADSL_TRTDUR> "59.0E0"^^<http://www.w3.org/2001/XMLSchema#double> .
<http://www.example.org/datasets/ADSL/01-701-1211> <http://www.example.org/datasets/vocab/ADSL_USUBJID> "01-701-1211" .
<http://www.example.org/datasets/ADSL/01-701-1211> <http://www.example.org/datasets/vocab/ADSL_TRT01A> "Xanomeline Low Dose" .
<http://www.example.org/datasets/ADSL/01-701-1211> <http://www.example.org/datasets/vocab/ADSL_HEIGHTBL> "160.0E0"^^<http://www.w3.org/2001/XMLSchema#double> .
<http://www.example.org/datasets/ADSL/01-701-1211> <http://www.example.org/datasets/vocab/ADSL_ETHNIC> "NOT HISPANIC OR LATINO" .
<http://www.example.org/datasets/ADSL/01-701-1211> <http://www.example.org/datasets/vocab/ADSL_RACE> "WHITE" .
<http://www.example.org/datasets/ADSL/01-701-1211> <http://www.example.org/datasets/vocab/ADSL_TRT01AN> "54.0E0"^^<http://www.w3.org/2001/XMLSchema#double> .
<http://www.example.org/datasets/ADSL/01-701-1211> <http://www.example.org/datasets/vocab/ADSL_SITEGR1> "701" .
<http://www.example.org/datasets/ADSL/01-701-1211> <http://www.example.org/datasets/vocab/ADSL_TRT01PN> "54.0E0"^^<http://www.w3.org/2001/XMLSchema#double> .
<http://www.example.org/datasets/ADSL/01-701-1211> <http://www.example.org/datasets/vocab/ADSL_VISNUMEN> "9.0E0"^^<http://www.w3.org/2001/XMLSchema#double> .
<http://www.example.org/datasets/ADSL/01-701-1211> <http://www.example.org/datasets/vocab/ADSL_AGEU> "YEARS" .
<http://www.example.org/datasets/ADSL/01-701-1211> <http://www.example.org/datasets/vocab/ADSL_COMP16FL> "N" .
<http://www.example.org/datasets/ADSL/01-701-1211> <http://www.example.org/datasets/vocab/ADSL_AVGDD> "54.0E0"^^<http://www.w3.org/2001/XMLSchema#double> .
<http://www.example.org/datasets/ADSL/01-701-1211> <http://www.example.org/datasets/vocab/ADSL_SITEID> "701" .
<http://www.example.org/datasets/ADSL/01-701-1211> <http://www.example.org/datasets/vocab/ADSL_WEIGHTBL> "45.4E0"^^<http://www.w3.org/2001/XMLSchema#double> .
<http://www.example.org/datasets/ADSL/01-701-1211> <http://www.example.org/datasets/vocab/ADSL_COMP24FL> "N" .
<http://www.example.org/datasets/ADSL/01-701-1211> <http://www.example.org/datasets/vocab/ADSL_DURDIS> "31.4E0"^^<http://www.w3.org/2001/XMLSchema#double> .
<http://www.example.org/datasets/ADSL/01-701-1211> <http://www.example.org/datasets/vocab/ADSL_RACEN> "1.0E0"^^<http://www.w3.org/2001/XMLSchema#double> .
<http://www.example.org/datasets/ADSL/01-701-1211> <http://www.example.org/datasets/vocab/ADSL_ITTFL> "Y" .
<http://www.example.org/datasets/ADSL/01-701-1211> <http://www.example.org/datasets/vocab/ADSL_STUDYID> "CDISCPILOT01" .
<http://www.example.org/datasets/ADSL/01-701-1211> <http://www.example.org/datasets/vocab/ADSL_BMIBLGR1> "<25" .
<http://www.example.org/datasets/ADSL/01-701-1211> <http://www.example.org/datasets/vocab/ADSL_TRT01P> "Xanomeline Low Dose" .
<http://www.example.org/datasets/ADSL/01-701-1211> <http://www.example.org/datasets/vocab/ADSL_EDUCLVL> "12.0E0"^^<http://www.w3.org/2001/XMLSchema#double> .
<http://www.example.org/datasets/ADSL/01-701-1211> <http://www.example.org/datasets/vocab/ADSL_EFFFL> "Y" .
<http://www.example.org/datasets/ADSL/01-701-1211> <http://www.example.org/datasets/vocab/ADSL_ARM> "Xanomeline Low Dose" .
<http://www.example.org/datasets/ADSL/01-701-1211> <http://www.w3.org/2000/01/rdf-schema#label> "ADSL #01-701-1211" .
<http://www.example.org/datasets/ADSL/01-701-1211> <http://www.example.org/datasets/vocab/ADSL_AGEGR1N> "2.0E0"^^<http://www.w3.org/2001/XMLSchema#double> .
<http://www.example.org/datasets/ADSL/01-701-1211> <http://www.example.org/datasets/vocab/ADSL_RFENDT> "19372.0E0"^^<http://www.w3.org/2001/XMLSchema#double> .
<http://www.example.org/datasets/ADSL/01-701-1211> <http://www.example.org/datasets/vocab/ADSL_CUMDOSE> "3186.0E0"^^<http://www.w3.org/2001/XMLSchema#double> .
<http://www.example.org/datasets/ADSL/01-701-1211> <http://www.example.org/datasets/vocab/ADSL_DCREASCD> "Death" .
<http://www.example.org/datasets/ADSL/01-701-1211> <http://www.example.org/datasets/vocab/ADSL_BMIBL> "17.7E0"^^<http://www.w3.org/2001/XMLSchema#double> .
<http://www.example.org/datasets/ADSL/01-701-1211> <http://www.example.org/datasets/vocab/ADSL_DISCONFL> "Y" .
<http://www.example.org/datasets/ADSL/01-701-1211> <http://www.example.org/datasets/vocab/ADSL_DSRAEFL> "" .
<http://www.example.org/datasets/ADSL/01-701-1211> <http://www.example.org/datasets/vocab/ADSL_MMSETOT> "12.0E0"^^<http://www.w3.org/2001/XMLSchema#double> .
<http://www.example.org/datasets/ADSL/01-701-1211> <http://www.example.org/datasets/vocab/ADSL_DCDECOD> "DEATH" .
<http://www.example.org/datasets/ADSL/01-701-1211> <http://www.example.org/datasets/vocab/ADSL_RFENDTC> "2013-01-14" .
<http://www.example.org/datasets/ADSL/01-701-1211> <http://www.example.org/datasets/vocab/ADSL_DISONSDT> "18340.0E0"^^<http://www.w3.org/2001/XMLSchema#double> .
<http://www.example.org/datasets/ADSL/01-701-1211> <http://www.example.org/datasets/vocab/ADSL_AGEGR1> "65-80" .
<http://www.example.org/datasets/ADSL/01-701-1211> <http://www.example.org/datasets/vocab/ADSL_VISIT1DT> "19296.0E0"^^<http://www.w3.org/2001/XMLSchema#double> .
<http://www.example.org/datasets/ADSL/01-701-1211> <http://www.example.org/datasets/vocab/ADSL_COMP8FL> "Y" .
<http://www.example.org/datasets/ADSL/01-701-1211> <http://www.example.org/datasets/vocab/ADSL_SUBJID> "1211" .
<http://www.example.org/datasets/ADSL/01-701-1211> <http://www.w3.org/1999/02/22-rdf-syntax-ns#type> <http://www.example.org/datasets/vocab/ADSL> .
<http://www.example.org/datasets/ADSL/01-701-1234> <http://www.example.org/datasets/vocab/ADSL_TRTSDT> "19447.0E0"^^<http://www.w3.org/2001/XMLSchema#double> .
<http://www.example.org/datasets/ADSL/01-701-1234> <http://www.example.org/datasets/vocab/ADSL_SAFFL> "Y" .
<http://www.example.org/datasets/ADSL/01-701-1234> <http://www.example.org/datasets/vocab/ADSL_TRTEDT> "19623.0E0"^^<http://www.w3.org/2001/XMLSchema#double> .
<http://www.example.org/datasets/ADSL/01-701-1234> <http://www.example.org/datasets/vocab/ADSL_DTHFL> "" .
<http://www.example.org/datasets/ADSL/01-701-1234> <http://www.example.org/datasets/vocab/ADSL_AGE> "69.0E0"^^<http://www.w3.org/2001/XMLSchema#double> .
<http://www.example.org/datasets/ADSL/01-701-1234> <http://www.example.org/datasets/vocab/ADSL_RFSTDTC> "2013-03-30" .
<http://www.example.org/datasets/ADSL/01-701-1234> <http://www.example.org/datasets/vocab/ADSL_SEX> "M" .
<http://www.example.org/datasets/ADSL/01-701-1234> <http://www.example.org/datasets/vocab/ADSL_DURDSGR1> ">=12" .
<http://www.example.org/datasets/ADSL/01-701-1234> <http://www.example.org/datasets/vocab/ADSL_TRTDUR> "177.0E0"^^<http://www.w3.org/2001/XMLSchema#double> .
<http://www.example.org/datasets/ADSL/01-701-1234> <http://www.example.org/datasets/vocab/ADSL_USUBJID> "01-701-1234" .
<http://www.example.org/datasets/ADSL/01-701-1234> <http://www.example.org/datasets/vocab/ADSL_TRT01A> "Placebo" .
<http://www.example.org/datasets/ADSL/01-701-1234> <http://www.example.org/datasets/vocab/ADSL_HEIGHTBL> "181.6E0"^^<http://www.w3.org/2001/XMLSchema#double> .
<http://www.example.org/datasets/ADSL/01-701-1234> <http://www.example.org/datasets/vocab/ADSL_ETHNIC> "NOT HISPANIC OR LATINO" .
<http://www.example.org/datasets/ADSL/01-701-1234> <http://www.example.org/datasets/vocab/ADSL_RACE> "WHITE" .
<http://www.example.org/datasets/ADSL/01-701-1234> <http://www.example.org/datasets/vocab/ADSL_TRT01AN> "0.0E0"^^<http://www.w3.org/2001/XMLSchema#double> .
<http://www.example.org/datasets/ADSL/01-701-1234> <http://www.example.org/datasets/vocab/ADSL_SITEGR1> "701" .
<http://www.example.org/datasets/ADSL/01-701-1234> <http://www.example.org/datasets/vocab/ADSL_TRT01PN> "0.0E0"^^<http://www.w3.org/2001/XMLSchema#double> .
<http://www.example.org/datasets/ADSL/01-701-1234> <http://www.example.org/datasets/vocab/ADSL_VISNUMEN> "12.0E0"^^<http://www.w3.org/2001/XMLSchema#double> .
<http://www.example.org/datasets/ADSL/01-701-1234> <http://www.example.org/datasets/vocab/ADSL_AGEU> "YEARS" .
<http://www.example.org/datasets/ADSL/01-701-1234> <http://www.example.org/datasets/vocab/ADSL_COMP16FL> "Y" .
<http://www.example.org/datasets/ADSL/01-701-1234> <http://www.example.org/datasets/vocab/ADSL_AVGDD> "0.0E0"^^<http://www.w3.org/2001/XMLSchema#double> .
<http://www.example.org/datasets/ADSL/01-701-1234> <http://www.example.org/datasets/vocab/ADSL_SITEID> "701" .
<http://www.example.org/datasets/ADSL/01-701-1234> <http://www.example.org/datasets/vocab/ADSL_WEIGHTBL> "77.1E0"^^<http://www.w3.org/2001/XMLSchema#double> .
<http://www.example.org/datasets/ADSL/01-701-1234> <http://www.example.org/datasets/vocab/ADSL_COMP24FL> "Y" .
<http://www.example.org/datasets/ADSL/01-701-1234> <http://www.example.org/datasets/vocab/ADSL_DURDIS> "79.3E0"^^<http://www.w3.org/2001/XMLSchema#double> .
<http://www.example.org/datasets/ADSL/01-701-1234> <http://www.example.org/datasets/vocab/ADSL_RACEN> "1.0E0"^^<http://www.w3.org/2001/XMLSchema#double> .
<http://www.example.org/datasets/ADSL/01-701-1234> <http://www.example.org/datasets/vocab/ADSL_ITTFL> "Y" .
<http://www.example.org/datasets/ADSL/01-701-1234> <http://www.example.org/datasets/vocab/ADSL_STUDYID> "CDISCPILOT01" .
<http://www.example.org/datasets/ADSL/01-701-1234> <http://www.example.org/datasets/vocab/ADSL_BMIBLGR1> "<25" .
<http://www.example.org/datasets/ADSL/01-701-1234> <http://www.example.org/datasets/vocab/ADSL_TRT01P> "Placebo" .
<http://www.example.org/datasets/ADSL/01-701-1234> <http://www.example.org/datasets/vocab/ADSL_EDUCLVL> "18.0E0"^^<http://www.w3.org/2001/XMLSchema#double> .
<http://www.example.org/datasets/ADSL/01-701-1234> <http://www.example.org/datasets/vocab/ADSL_EFFFL> "Y" .
<http://www.example.org/datasets/ADSL/01-701-1234> <http://www.example.org/datasets/vocab/ADSL_ARM> "Placebo" .
<http://www.example.org/datasets/ADSL/01-701-1234> <http://www.w3.org/2000/01/rdf-schema#label> "ADSL #01-701-1234" .
<http://www.example.org/datasets/ADSL/01-701-1234> <http://www.example.org/datasets/vocab/ADSL_AGEGR1N> "2.0E0"^^<http://www.w3.org/2001/XMLSchema#double> .
<http://www.example.org/datasets/ADSL/01-701-1234> <http://www.example.org/datasets/vocab/ADSL_RFENDT> "19623.0E0"^^<http://www.w3.org/2001/XMLSchema#double> .
<http://www.example.org/datasets/ADSL/01-701-1234> <http://www.example.org/datasets/vocab/ADSL_CUMDOSE> "0.0E0"^^<http://www.w3.org/2001/XMLSchema#double> .
<http://www.example.org/datasets/ADSL/01-701-1234> <http://www.example.org/datasets/vocab/ADSL_DCREASCD> "Completed" .
<http://www.example.org/datasets/ADSL/01-701-1234> <http://www.example.org/datasets/vocab/ADSL_BMIBL> "23.4E0"^^<http://www.w3.org/2001/XMLSchema#double> .
<http://www.example.org/datasets/ADSL/01-701-1234> <http://www.example.org/datasets/vocab/ADSL_DISCONFL> "" .
<http://www.example.org/datasets/ADSL/01-701-1234> <http://www.example.org/datasets/vocab/ADSL_DSRAEFL> "" .
<http://www.example.org/datasets/ADSL/01-701-1234> <http://www.example.org/datasets/vocab/ADSL_MMSETOT> "20.0E0"^^<http://www.w3.org/2001/XMLSchema#double> .
<http://www.example.org/datasets/ADSL/01-701-1234> <http://www.example.org/datasets/vocab/ADSL_DCDECOD> "COMPLETED" .
<http://www.example.org/datasets/ADSL/01-701-1234> <http://www.example.org/datasets/vocab/ADSL_RFENDTC> "2013-09-22" .
<http://www.example.org/datasets/ADSL/01-701-1234> <http://www.example.org/datasets/vocab/ADSL_DISONSDT> "17024.0E0"^^<http://www.w3.org/2001/XMLSchema#double> .
<http://www.example.org/datasets/ADSL/01-701-1234> <http://www.example.org/datasets/vocab/ADSL_AGEGR1> "65-80" .
<http://www.example.org/datasets/ADSL/01-701-1234> <http://www.example.org/datasets/vocab/ADSL_VISIT1DT> "19437.0E0"^^<http://www.w3.org/2001/XMLSchema#double> .
<http://www.example.org/datasets/ADSL/01-701-1234> <http://www.example.org/datasets/vocab/ADSL_COMP8FL> "Y" .
<http://www.example.org/datasets/ADSL/01-701-1234> <http://www.example.org/datasets/vocab/ADSL_SUBJID> "1234" .
<http://www.example.org/datasets/ADSL/01-701-1234> <http://www.w3.org/1999/02/22-rdf-syntax-ns#type> <http://www.example.org/datasets/vocab/ADSL> .
<http://www.example.org/datasets/ADSL/01-701-1239> <http://www.example.org/datasets/vocab/ADSL_TRTSDT> "19734.0E0"^^<http://www.w3.org/2001/XMLSchema#double> .
<http://www.example.org/datasets/ADSL/01-701-1239> <http://www.example.org/datasets/vocab/ADSL_SAFFL> "Y" .
<http://www.example.org/datasets/ADSL/01-701-1239> <http://www.example.org/datasets/vocab/ADSL_TRTEDT> "19914.0E0"^^<http://www.w3.org/2001/XMLSchema#double> .
<http://www.example.org/datasets/ADSL/01-701-1239> <http://www.example.org/datasets/vocab/ADSL_DTHFL> "" .
<http://www.example.org/datasets/ADSL/01-701-1239> <http://www.example.org/datasets/vocab/ADSL_AGE> "56.0E0"^^<http://www.w3.org/2001/XMLSchema#double> .
<http://www.example.org/datasets/ADSL/01-701-1239> <http://www.example.org/datasets/vocab/ADSL_RFSTDTC> "2014-01-11" .
<http://www.example.org/datasets/ADSL/01-701-1239> <http://www.example.org/datasets/vocab/ADSL_SEX> "M" .
<http://www.example.org/datasets/ADSL/01-701-1239> <http://www.example.org/datasets/vocab/ADSL_DURDSGR1> ">=12" .
<http://www.example.org/datasets/ADSL/01-701-1239> <http://www.example.org/datasets/vocab/ADSL_TRTDUR> "181.0E0"^^<http://www.w3.org/2001/XMLSchema#double> .
<http://www.example.org/datasets/ADSL/01-701-1239> <http://www.example.org/datasets/vocab/ADSL_USUBJID> "01-701-1239" .
<http://www.example.org/datasets/ADSL/01-701-1239> <http://www.example.org/datasets/vocab/ADSL_TRT01A> "Xanomeline High Dose" .
<http://www.example.org/datasets/ADSL/01-701-1239> <http://www.example.org/datasets/vocab/ADSL_HEIGHTBL> "168.9E0"^^<http://www.w3.org/2001/XMLSchema#double> .
<http://www.example.org/datasets/ADSL/01-701-1239> <http://www.example.org/datasets/vocab/ADSL_ETHNIC> "HISPANIC OR LATINO" .
<http://www.example.org/datasets/ADSL/01-701-1239> <http://www.example.org/datasets/vocab/ADSL_RACE> "WHITE" .
<http://www.example.org/datasets/ADSL/01-701-1239> <http://www.example.org/datasets/vocab/ADSL_TRT01AN> "81.0E0"^^<http://www.w3.org/2001/XMLSchema#double> .
<http://www.example.org/datasets/ADSL/01-701-1239> <http://www.example.org/datasets/vocab/ADSL_SITEGR1> "701" .
<http://www.example.org/datasets/ADSL/01-701-1239> <http://www.example.org/datasets/vocab/ADSL_TRT01PN> "81.0E0"^^<http://www.w3.org/2001/XMLSchema#double> .
<http://www.example.org/datasets/ADSL/01-701-1239> <http://www.example.org/datasets/vocab/ADSL_VISNUMEN> "12.0E0"^^<http://www.w3.org/2001/XMLSchema#double> .
<http://www.example.org/datasets/ADSL/01-701-1239> <http://www.example.org/datasets/vocab/ADSL_AGEU> "YEARS" .
<http://www.example.org/datasets/ADSL/01-701-1239> <http://www.example.org/datasets/vocab/ADSL_COMP16FL> "Y" .
<http://www.example.org/datasets/ADSL/01-701-1239> <http://www.example.org/datasets/vocab/ADSL_AVGDD> "76.8E0"^^<http://www.w3.org/2001/XMLSchema#double> .
<http://www.example.org/datasets/ADSL/01-701-1239> <http://www.example.org/datasets/vocab/ADSL_SITEID> "701" .
<http://www.example.org/datasets/ADSL/01-701-1239> <http://www.example.org/datasets/vocab/ADSL_WEIGHTBL> "95.9E0"^^<http://www.w3.org/2001/XMLSchema#double> .
<http://www.example.org/datasets/ADSL/01-701-1239> <http://www.example.org/datasets/vocab/ADSL_COMP24FL> "Y" .
<http://www.example.org/datasets/ADSL/01-701-1239> <http://www.example.org/datasets/vocab/ADSL_DURDIS> "123.2E0"^^<http://www.w3.org/2001/XMLSchema#double> .
<http://www.example.org/datasets/ADSL/01-701-1239> <http://www.example.org/datasets/vocab/ADSL_RACEN> "1.0E0"^^<http://www.w3.org/2001/XMLSchema#double> .
<http://www.example.org/datasets/ADSL/01-701-1239> <http://www.example.org/datasets/vocab/ADSL_ITTFL> "Y" .
<http://www.example.org/datasets/ADSL/01-701-1239> <http://www.example.org/datasets/vocab/ADSL_STUDYID> "CDISCPILOT01" .
<http://www.example.org/datasets/ADSL/01-701-1239> <http://www.example.org/datasets/vocab/ADSL_BMIBLGR1> ">=30" .
<http://www.example.org/datasets/ADSL/01-701-1239> <http://www.example.org/datasets/vocab/ADSL_TRT01P> "Xanomeline High Dose" .
<http://www.example.org/datasets/ADSL/01-701-1239> <http://www.example.org/datasets/vocab/ADSL_EDUCLVL> "11.0E0"^^<http://www.w3.org/2001/XMLSchema#double> .
<http://www.example.org/datasets/ADSL/01-701-1239> <http://www.example.org/datasets/vocab/ADSL_EFFFL> "Y" .
<http://www.example.org/datasets/ADSL/01-701-1239> <http://www.example.org/datasets/vocab/ADSL_ARM> "Xanomeline High Dose" .
<http://www.example.org/datasets/ADSL/01-701-1239> <http://www.w3.org/2000/01/rdf-schema#label> "ADSL #01-701-1239" .
<http://www.example.org/datasets/ADSL/01-701-1239> <http://www.example.org/datasets/vocab/ADSL_AGEGR1N> "1.0E0"^^<http://www.w3.org/2001/XMLSchema#double> .
<http://www.example.org/datasets/ADSL/01-701-1239> <http://www.example.org/datasets/vocab/ADSL_RFENDT> "19915.0E0"^^<http://www.w3.org/2001/XMLSchema#double> .
<http://www.example.org/datasets/ADSL/01-701-1239> <http://www.example.org/datasets/vocab/ADSL_CUMDOSE> "13905.0E0"^^<http://www.w3.org/2001/XMLSchema#double> .
<http://www.example.org/datasets/ADSL/01-701-1239> <http://www.example.org/datasets/vocab/ADSL_DCREASCD> "Completed" .
<http://www.example.org/datasets/ADSL/01-701-1239> <http://www.example.org/datasets/vocab/ADSL_BMIBL> "33.6E0"^^<http://www.w3.org/2001/XMLSchema#double> .
<http://www.example.org/datasets/ADSL/01-701-1239> <http://www.example.org/datasets/vocab/ADSL_DISCONFL> "" .
<http://www.example.org/datasets/ADSL/01-701-1239> <http://www.example.org/datasets/vocab/ADSL_DSRAEFL> "" .
<http://www.example.org/datasets/ADSL/01-701-1239> <http://www.example.org/datasets/vocab/ADSL_MMSETOT> "23.0E0"^^<http://www.w3.org/2001/XMLSchema#double> .
<http://www.example.org/datasets/ADSL/01-701-1239> <http://www.example.org/datasets/vocab/ADSL_DCDECOD> "COMPLETED" .
<http://www.example.org/datasets/ADSL/01-701-1239> <http://www.example.org/datasets/vocab/ADSL_RFENDTC> "2014-07-11" .
<http://www.example.org/datasets/ADSL/01-701-1239> <http://www.example.org/datasets/vocab/ADSL_DISONSDT> "15971.0E0"^^<http://www.w3.org/2001/XMLSchema#double> .
<http://www.example.org/datasets/ADSL/01-701-1239> <http://www.example.org/datasets/vocab/ADSL_AGEGR1> "<65" .
<http://www.example.org/datasets/ADSL/01-701-1239> <http://www.example.org/datasets/vocab/ADSL_VISIT1DT> "19720.0E0"^^<http://www.w3.org/2001/XMLSchema#double> .
<http://www.example.org/datasets/ADSL/01-701-1239> <http://www.example.org/datasets/vocab/ADSL_COMP8FL> "Y" .
<http://www.example.org/datasets/ADSL/01-701-1239> <http://www.example.org/datasets/vocab/ADSL_SUBJID> "1239" .
<http://www.example.org/datasets/ADSL/01-701-1239> <http://www.w3.org/1999/02/22-rdf-syntax-ns#type> <http://www.example.org/datasets/vocab/ADSL> .
<http://www.example.org/datasets/ADSL/01-701-1275> <http://www.example.org/datasets/vocab/ADSL_TRTSDT> "19761.0E0"^^<http://www.w3.org/2001/XMLSchema#double> .
<http://www.example.org/datasets/ADSL/01-701-1275> <http://www.example.org/datasets/vocab/ADSL_SAFFL> "Y" .
<http://www.example.org/datasets/ADSL/01-701-1275> <http://www.example.org/datasets/vocab/ADSL_TRTEDT> "19874.0E0"^^<http://www.w3.org/2001/XMLSchema#double> .
<http://www.example.org/datasets/ADSL/01-701-1275> <http://www.example.org/datasets/vocab/ADSL_DTHFL> "" .
<http://www.example.org/datasets/ADSL/01-701-1275> <http://www.example.org/datasets/vocab/ADSL_AGE> "61.0E0"^^<http://www.w3.org/2001/XMLSchema#double> .
<http://www.example.org/datasets/ADSL/01-701-1275> <http://www.example.org/datasets/vocab/ADSL_RFSTDTC> "2014-02-07" .
<http://www.example.org/datasets/ADSL/01-701-1275> <http://www.example.org/datasets/vocab/ADSL_SEX> "M" .
<http://www.example.org/datasets/ADSL/01-701-1275> <http://www.example.org/datasets/vocab/ADSL_DURDSGR1> ">=12" .
<http://www.example.org/datasets/ADSL/01-701-1275> <http://www.example.org/datasets/vocab/ADSL_TRTDUR> "114.0E0"^^<http://www.w3.org/2001/XMLSchema#double> .
<http://www.example.org/datasets/ADSL/01-701-1275> <http://www.example.org/datasets/vocab/ADSL_USUBJID> "01-701-1275" .
<http://www.example.org/datasets/ADSL/01-701-1275> <http://www.example.org/datasets/vocab/ADSL_TRT01A> "Xanomeline High Dose" .
<http://www.example.org/datasets/ADSL/01-701-1275> <http://www.example.org/datasets/vocab/ADSL_HEIGHTBL> "167.6E0"^^<http://www.w3.org/2001/XMLSchema#double> .
<http://www.example.org/datasets/ADSL/01-701-1275> <http://www.example.org/datasets/vocab/ADSL_ETHNIC> "NOT HISPANIC OR LATINO" .
<http://www.example.org/datasets/ADSL/01-701-1275> <http://www.example.org/datasets/vocab/ADSL_RACE> "AMERICAN INDIAN OR ALASKA NATIVE" .
<http://www.example.org/datasets/ADSL/01-701-1275> <http://www.example.org/datasets/vocab/ADSL_TRT01AN> "81.0E0"^^<http://www.w3.org/2001/XMLSchema#double> .
<http://www.example.org/datasets/ADSL/01-701-1275> <http://www.example.org/datasets/vocab/ADSL_SITEGR1> "701" .
<http://www.example.org/datasets/ADSL/01-701-1275> <http://www.example.org/datasets/vocab/ADSL_TRT01PN> "81.0E0"^^<http://www.w3.org/2001/XMLSchema#double> .
<http://www.example.org/datasets/ADSL/01-701-1275> <http://www.example.org/datasets/vocab/ADSL_VISNUMEN> "10.0E0"^^<http://www.w3.org/2001/XMLSchema#double> .
<http://www.example.org/datasets/ADSL/01-701-1275> <http://www.example.org/datasets/vocab/ADSL_AGEU> "YEARS" .
<http://www.example.org/datasets/ADSL/01-701-1275> <http://www.example.org/datasets/vocab/ADSL_COMP16FL> "Y" .
<http://www.example.org/datasets/ADSL/01-701-1275> <http://www.example.org/datasets/vocab/ADSL_AVGDD> "77.2E0"^^<http://www.w3.org/2001/XMLSchema#double> .
<http://www.example.org/datasets/ADSL/01-701-1275> <http://www.example.org/datasets/vocab/ADSL_SITEID> "701" .
<http://www.example.org/datasets/ADSL/01-701-1275> <http://www.example.org/datasets/vocab/ADSL_WEIGHTBL> "69.0E0"^^<http://www.w3.org/2001/XMLSchema#double> .
<http://www.example.org/datasets/ADSL/01-701-1275> <http://www.example.org/datasets/vocab/ADSL_COMP24FL> "N" .
<http://www.example.org/datasets/ADSL/01-701-1275> <http://www.example.org/datasets/vocab/ADSL_DURDIS> "28.3E0"^^<http://www.w3.org/2001/XMLSchema#double> .
<http://www.example.org/datasets/ADSL/01-701-1275> <http://www.example.org/datasets/vocab/ADSL_RACEN> "6.0E0"^^<http://www.w3.org/2001/XMLSchema#double> .
<http://www.example.org/datasets/ADSL/01-701-1275> <http://www.example.org/datasets/vocab/ADSL_ITTFL> "Y" .
<http://www.example.org/datasets/ADSL/01-701-1275> <http://www.example.org/datasets/vocab/ADSL_STUDYID> "CDISCPILOT01" .
<http://www.example.org/datasets/ADSL/01-701-1275> <http://www.example.org/datasets/vocab/ADSL_BMIBLGR1> "<25" .
<http://www.example.org/datasets/ADSL/01-701-1275> <http://www.example.org/datasets/vocab/ADSL_TRT01P> "Xanomeline High Dose" .
<http://www.example.org/datasets/ADSL/01-701-1275> <http://www.example.org/datasets/vocab/ADSL_EDUCLVL> "12.0E0"^^<http://www.w3.org/2001/XMLSchema#double> .
<http://www.example.org/datasets/ADSL/01-701-1275> <http://www.example.org/datasets/vocab/ADSL_EFFFL> "Y" .
<http://www.example.org/datasets/ADSL/01-701-1275> <http://www.example.org/datasets/vocab/ADSL_ARM> "Xanomeline High Dose" .
<http://www.example.org/datasets/ADSL/01-701-1275> <http://www.w3.org/2000/01/rdf-schema#label> "ADSL #01-701-1275" .
<http://www.example.org/datasets/ADSL/01-701-1275> <http://www.example.org/datasets/vocab/ADSL_AGEGR1N> "1.0E0"^^<http://www.w3.org/2001/XMLSchema#double> .
<http://www.example.org/datasets/ADSL/01-701-1275> <http://www.example.org/datasets/vocab/ADSL_RFENDT> "19888.0E0"^^<http://www.w3.org/2001/XMLSchema#double> .
<http://www.example.org/datasets/ADSL/01-701-1275> <http://www.example.org/datasets/vocab/ADSL_CUMDOSE> "8802.0E0"^^<http://www.w3.org/2001/XMLSchema#double> .
<http://www.example.org/datasets/ADSL/01-701-1275> <http://www.example.org/datasets/vocab/ADSL_DCREASCD> "Withdrew Consent" .
<http://www.example.org/datasets/ADSL/01-701-1275> <http://www.example.org/datasets/vocab/ADSL_BMIBL> "24.6E0"^^<http://www.w3.org/2001/XMLSchema#double> .
<http://www.example.org/datasets/ADSL/01-701-1275> <http://www.example.org/datasets/vocab/ADSL_DISCONFL> "Y" .
<http://www.example.org/datasets/ADSL/01-701-1275> <http://www.example.org/datasets/vocab/ADSL_DSRAEFL> "" .
<http://www.example.org/datasets/ADSL/01-701-1275> <http://www.example.org/datasets/vocab/ADSL_MMSETOT> "22.0E0"^^<http://www.w3.org/2001/XMLSchema#double> .
<http://www.example.org/datasets/ADSL/01-701-1275> <http://www.example.org/datasets/vocab/ADSL_DCDECOD> "WITHDRAWAL BY SUBJECT" .
<http://www.example.org/datasets/ADSL/01-701-1275> <http://www.example.org/datasets/vocab/ADSL_RFENDTC> "2014-06-14" .
<http://www.example.org/datasets/ADSL/01-701-1275> <http://www.example.org/datasets/vocab/ADSL_DISONSDT> "18887.0E0"^^<http://www.w3.org/2001/XMLSchema#double> .
<http://www.example.org/datasets/ADSL/01-701-1275> <http://www.example.org/datasets/vocab/ADSL_AGEGR1> "<65" .
<http://www.example.org/datasets/ADSL/01-701-1275> <http://www.example.org/datasets/vocab/ADSL_VISIT1DT> "19748.0E0"^^<http://www.w3.org/2001/XMLSchema#double> .
<http://www.example.org/datasets/ADSL/01-701-1275> <http://www.example.org/datasets/vocab/ADSL_COMP8FL> "Y" .
<http://www.example.org/datasets/ADSL/01-701-1275> <http://www.example.org/datasets/vocab/ADSL_SUBJID> "1275" .
<http://www.example.org/datasets/ADSL/01-701-1275> <http://www.w3.org/1999/02/22-rdf-syntax-ns#type> <http://www.example.org/datasets/vocab/ADSL> .
<http://www.example.org/datasets/ADSL/01-701-1287> <http://www.example.org/datasets/vocab/ADSL_TRTSDT> "19748.0E0"^^<http://www.w3.org/2001/XMLSchema#double> .
<http://www.example.org/datasets/ADSL/01-701-1287> <http://www.example.org/datasets/vocab/ADSL_SAFFL> "Y" .
<http://www.example.org/datasets/ADSL/01-701-1287> <http://www.example.org/datasets/vocab/ADSL_TRTEDT> "19930.0E0"^^<http://www.w3.org/2001/XMLSchema#double> .
<http://www.example.org/datasets/ADSL/01-701-1287> <http://www.example.org/datasets/vocab/ADSL_DTHFL> "" .
<http://www.example.org/datasets/ADSL/01-701-1287> <http://www.example.org/datasets/vocab/ADSL_AGE> "56.0E0"^^<http://www.w3.org/2001/XMLSchema#double> .
<http://www.example.org/datasets/ADSL/01-701-1287> <http://www.example.org/datasets/vocab/ADSL_RFSTDTC> "2014-01-25" .
<http://www.example.org/datasets/ADSL/01-701-1287> <http://www.example.org/datasets/vocab/ADSL_SEX> "F" .
<http://www.example.org/datasets/ADSL/01-701-1287> <http://www.example.org/datasets/vocab/ADSL_DURDSGR1> ">=12" .
<http://www.example.org/datasets/ADSL/01-701-1287> <http://www.example.org/datasets/vocab/ADSL_TRTDUR> "183.0E0"^^<http://www.w3.org/2001/XMLSchema#double> .
<http://www.example.org/datasets/ADSL/01-701-1287> <http://www.example.org/datasets/vocab/ADSL_USUBJID> "01-701-1287" .
<http://www.example.org/datasets/ADSL/01-701-1287> <http://www.example.org/datasets/vocab/ADSL_TRT01A> "Xanomeline High Dose" .
<http://www.example.org/datasets/ADSL/01-701-1287> <http://www.example.org/datasets/vocab/ADSL_HEIGHTBL> "154.9E0"^^<http://www.w3.org/2001/XMLSchema#double> .
<http://www.example.org/datasets/ADSL/01-701-1287> <http://www.example.org/datasets/vocab/ADSL_ETHNIC> "HISPANIC OR LATINO" .
<http://www.example.org/datasets/ADSL/01-701-1287> <http://www.example.org/datasets/vocab/ADSL_RACE> "WHITE" .
<http://www.example.org/datasets/ADSL/01-701-1287> <http://www.example.org/datasets/vocab/ADSL_TRT01AN> "81.0E0"^^<http://www.w3.org/2001/XMLSchema#double> .
<http://www.example.org/datasets/ADSL/01-701-1287> <http://www.example.org/datasets/vocab/ADSL_SITEGR1> "701" .
<http://www.example.org/datasets/ADSL/01-701-1287> <http://www.example.org/datasets/vocab/ADSL_TRT01PN> "81.0E0"^^<http://www.w3.org/2001/XMLSchema#double> .
<http://www.example.org/datasets/ADSL/01-701-1287> <http://www.example.org/datasets/vocab/ADSL_VISNUMEN> "12.0E0"^^<http://www.w3.org/2001/XMLSchema#double> .
<http://www.example.org/datasets/ADSL/01-701-1287> <http://www.example.org/datasets/vocab/ADSL_AGEU> "YEARS" .
<http://www.example.org/datasets/ADSL/01-701-1287> <http://www.example.org/datasets/vocab/ADSL_COMP16FL> "Y" .
<http://www.example.org/datasets/ADSL/01-701-1287> <http://www.example.org/datasets/vocab/ADSL_AVGDD> "76.3E0"^^<http://www.w3.org/2001/XMLSchema#double> .
<http://www.example.org/datasets/ADSL/01-701-1287> <http://www.example.org/datasets/vocab/ADSL_SITEID> "701" .
<http://www.example.org/datasets/ADSL/01-701-1287> <http://www.example.org/datasets/vocab/ADSL_WEIGHTBL> "56.3E0"^^<http://www.w3.org/2001/XMLSchema#double> .
<http://www.example.org/datasets/ADSL/01-701-1287> <http://www.example.org/datasets/vocab/ADSL_COMP24FL> "Y" .
<http://www.example.org/datasets/ADSL/01-701-1287> <http://www.example.org/datasets/vocab/ADSL_DURDIS> "50.6E0"^^<http://www.w3.org/2001/XMLSchema#double> .
<http://www.example.org/datasets/ADSL/01-701-1287> <http://www.example.org/datasets/vocab/ADSL_RACEN> "1.0E0"^^<http://www.w3.org/2001/XMLSchema#double> .
<http://www.example.org/datasets/ADSL/01-701-1287> <http://www.example.org/datasets/vocab/ADSL_ITTFL> "Y" .
<http://www.example.org/datasets/ADSL/01-701-1287> <http://www.example.org/datasets/vocab/ADSL_STUDYID> "CDISCPILOT01" .
<http://www.example.org/datasets/ADSL/01-701-1287> <http://www.example.org/datasets/vocab/ADSL_BMIBLGR1> "<25" .
<http://www.example.org/datasets/ADSL/01-701-1287> <http://www.example.org/datasets/vocab/ADSL_TRT01P> "Xanomeline High Dose" .
<http://www.example.org/datasets/ADSL/01-701-1287> <http://www.example.org/datasets/vocab/ADSL_EDUCLVL> "14.0E0"^^<http://www.w3.org/2001/XMLSchema#double> .
<http://www.example.org/datasets/ADSL/01-701-1287> <http://www.example.org/datasets/vocab/ADSL_EFFFL> "Y" .
<http://www.example.org/datasets/ADSL/01-701-1287> <http://www.example.org/datasets/vocab/ADSL_ARM> "Xanomeline High Dose" .
<http://www.example.org/datasets/ADSL/01-701-1287> <http://www.w3.org/2000/01/rdf-schema#label> "ADSL #01-701-1287" .
<http://www.example.org/datasets/ADSL/01-701-1287> <http://www.example.org/datasets/vocab/ADSL_AGEGR1N> "1.0E0"^^<http://www.w3.org/2001/XMLSchema#double> .
<http://www.example.org/datasets/ADSL/01-701-1287> <http://www.example.org/datasets/vocab/ADSL_RFENDT> "19930.0E0"^^<http://www.w3.org/2001/XMLSchema#double> .
<http://www.example.org/datasets/ADSL/01-701-1287> <http://www.example.org/datasets/vocab/ADSL_CUMDOSE> "13959.0E0"^^<http://www.w3.org/2001/XMLSchema#double> .
<http://www.example.org/datasets/ADSL/01-701-1287> <http://www.example.org/datasets/vocab/ADSL_DCREASCD> "Completed" .
<http://www.example.org/datasets/ADSL/01-701-1287> <http://www.example.org/datasets/vocab/ADSL_BMIBL> "23.5E0"^^<http://www.w3.org/2001/XMLSchema#double> .
<http://www.example.org/datasets/ADSL/01-701-1287> <http://www.example.org/datasets/vocab/ADSL_DISCONFL> "" .
<http://www.example.org/datasets/ADSL/01-701-1287> <http://www.example.org/datasets/vocab/ADSL_DSRAEFL> "" .
<http://www.example.org/datasets/ADSL/01-701-1287> <http://www.example.org/datasets/vocab/ADSL_MMSETOT> "22.0E0"^^<http://www.w3.org/2001/XMLSchema#double> .
<http://www.example.org/datasets/ADSL/01-701-1287> <http://www.example.org/datasets/vocab/ADSL_DCDECOD> "COMPLETED" .
<http://www.example.org/datasets/ADSL/01-701-1287> <http://www.example.org/datasets/vocab/ADSL_RFENDTC> "2014-07-26" .
<http://www.example.org/datasets/ADSL/01-701-1287> <http://www.example.org/datasets/vocab/ADSL_DISONSDT> "18200.0E0"^^<http://www.w3.org/2001/XMLSchema#double> .
<http://www.example.org/datasets/ADSL/01-701-1287> <http://www.example.org/datasets/vocab/ADSL_AGEGR1> "<65" .
<http://www.example.org/datasets/ADSL/01-701-1287> <http://www.example.org/datasets/vocab/ADSL_VISIT1DT> "19740.0E0"^^<http://www.w3.org/2001/XMLSchema#double> .
<http://www.example.org/datasets/ADSL/01-701-1287> <http://www.example.org/datasets/vocab/ADSL_COMP8FL> "Y" .
<http://www.example.org/datasets/ADSL/01-701-1287> <http://www.example.org/datasets/vocab/ADSL_SUBJID> "1287" .
<http://www.example.org/datasets/ADSL/01-701-1287> <http://www.w3.org/1999/02/22-rdf-syntax-ns#type> <http://www.example.org/datasets/vocab/ADSL> .
<http://www.example.org/datasets/ADSL/01-701-1294> <http://www.example.org/datasets/vocab/ADSL_TRTSDT> "19441.0E0"^^<http://www.w3.org/2001/XMLSchema#double> .
<http://www.example.org/datasets/ADSL/01-701-1294> <http://www.example.org/datasets/vocab/ADSL_SAFFL> "Y" .
<http://www.example.org/datasets/ADSL/01-701-1294> <http://www.example.org/datasets/vocab/ADSL_TRTEDT> "19523.0E0"^^<http://www.w3.org/2001/XMLSchema#double> .
<http://www.example.org/datasets/ADSL/01-701-1294> <http://www.example.org/datasets/vocab/ADSL_DTHFL> "" .
<http://www.example.org/datasets/ADSL/01-701-1294> <http://www.example.org/datasets/vocab/ADSL_AGE> "67.0E0"^^<http://www.w3.org/2001/XMLSchema#double> .
<http://www.example.org/datasets/ADSL/01-701-1294> <http://www.example.org/datasets/vocab/ADSL_RFSTDTC> "2013-03-24" .
<http://www.example.org/datasets/ADSL/01-701-1294> <http://www.example.org/datasets/vocab/ADSL_SEX> "M" .
<http://www.example.org/datasets/ADSL/01-701-1294> <http://www.example.org/datasets/vocab/ADSL_DURDSGR1> ">=12" .
<http://www.example.org/datasets/ADSL/01-701-1294> <http://www.example.org/datasets/vocab/ADSL_TRTDUR> "83.0E0"^^<http://www.w3.org/2001/XMLSchema#double> .
<http://www.example.org/datasets/ADSL/01-701-1294> <http://www.example.org/datasets/vocab/ADSL_USUBJID> "01-701-1294" .
<http://www.example.org/datasets/ADSL/01-701-1294> <http://www.example.org/datasets/vocab/ADSL_TRT01A> "Xanomeline Low Dose" .
<http://www.example.org/datasets/ADSL/01-701-1294> <http://www.example.org/datasets/vocab/ADSL_HEIGHTBL> "170.2E0"^^<http://www.w3.org/2001/XMLSchema#double> .
<http://www.example.org/datasets/ADSL/01-701-1294> <http://www.example.org/datasets/vocab/ADSL_ETHNIC> "NOT HISPANIC OR LATINO" .
<http://www.example.org/datasets/ADSL/01-701-1294> <http://www.example.org/datasets/vocab/ADSL_RACE> "WHITE" .
<http://www.example.org/datasets/ADSL/01-701-1294> <http://www.example.org/datasets/vocab/ADSL_TRT01AN> "54.0E0"^^<http://www.w3.org/2001/XMLSchema#double> .
<http://www.example.org/datasets/ADSL/01-701-1294> <http://www.example.org/datasets/vocab/ADSL_SITEGR1> "701" .
<http://www.example.org/datasets/ADSL/01-701-1294> <http://www.example.org/datasets/vocab/ADSL_TRT01PN> "54.0E0"^^<http://www.w3.org/2001/XMLSchema#double> .
<http://www.example.org/datasets/ADSL/01-701-1294> <http://www.example.org/datasets/vocab/ADSL_VISNUMEN> "9.0E0"^^<http://www.w3.org/2001/XMLSchema#double> .
<http://www.example.org/datasets/ADSL/01-701-1294> <http://www.example.org/datasets/vocab/ADSL_AGEU> "YEARS" .
<http://www.example.org/datasets/ADSL/01-701-1294> <http://www.example.org/datasets/vocab/ADSL_COMP16FL> "N" .
<http://www.example.org/datasets/ADSL/01-701-1294> <http://www.example.org/datasets/vocab/ADSL_AVGDD> "54.0E0"^^<http://www.w3.org/2001/XMLSchema#double> .
<http://www.example.org/datasets/ADSL/01-701-1294> <http://www.example.org/datasets/vocab/ADSL_SITEID> "701" .
<http://www.example.org/datasets/ADSL/01-701-1294> <http://www.example.org/datasets/vocab/ADSL_WEIGHTBL> "78.5E0"^^<http://www.w3.org/2001/XMLSchema#double> .
<http://www.example.org/datasets/ADSL/01-701-1294> <http://www.example.org/datasets/vocab/ADSL_COMP24FL> "N" .
<http://www.example.org/datasets/ADSL/01-701-1294> <http://www.example.org/datasets/vocab/ADSL_DURDIS> "18.3E0"^^<http://www.w3.org/2001/XMLSchema#double> .
<http://www.example.org/datasets/ADSL/01-701-1294> <http://www.example.org/datasets/vocab/ADSL_RACEN> "1.0E0"^^<http://www.w3.org/2001/XMLSchema#double> .
<http://www.example.org/datasets/ADSL/01-701-1294> <http://www.example.org/datasets/vocab/ADSL_ITTFL> "Y" .
<http://www.example.org/datasets/ADSL/01-701-1294> <http://www.example.org/datasets/vocab/ADSL_STUDYID> "CDISCPILOT01" .
<http://www.example.org/datasets/ADSL/01-701-1294> <http://www.example.org/datasets/vocab/ADSL_BMIBLGR1> "25-<30" .
<http://www.example.org/datasets/ADSL/01-701-1294> <http://www.example.org/datasets/vocab/ADSL_TRT01P> "Xanomeline Low Dose" .
<http://www.example.org/datasets/ADSL/01-701-1294> <http://www.example.org/datasets/vocab/ADSL_EDUCLVL> "16.0E0"^^<http://www.w3.org/2001/XMLSchema#double> .
<http://www.example.org/datasets/ADSL/01-701-1294> <http://www.example.org/datasets/vocab/ADSL_EFFFL> "Y" .
<http://www.example.org/datasets/ADSL/01-701-1294> <http://www.example.org/datasets/vocab/ADSL_ARM> "Xanomeline Low Dose" .
<http://www.example.org/datasets/ADSL/01-701-1294> <http://www.w3.org/2000/01/rdf-schema#label> "ADSL #01-701-1294" .
<http://www.example.org/datasets/ADSL/01-701-1294> <http://www.example.org/datasets/vocab/ADSL_AGEGR1N> "2.0E0"^^<http://www.w3.org/2001/XMLSchema#double> .
<http://www.example.org/datasets/ADSL/01-701-1294> <http://www.example.org/datasets/vocab/ADSL_RFENDT> "19523.0E0"^^<http://www.w3.org/2001/XMLSchema#double> .
<http://www.example.org/datasets/ADSL/01-701-1294> <http://www.example.org/datasets/vocab/ADSL_CUMDOSE> "4482.0E0"^^<http://www.w3.org/2001/XMLSchema#double> .
<http://www.example.org/datasets/ADSL/01-701-1294> <http://www.example.org/datasets/vocab/ADSL_DCREASCD> "Adverse Event" .
<http://www.example.org/datasets/ADSL/01-701-1294> <http://www.example.org/datasets/vocab/ADSL_BMIBL> "27.1E0"^^<http://www.w3.org/2001/XMLSchema#double> .
<http://www.example.org/datasets/ADSL/01-701-1294> <http://www.example.org/datasets/vocab/ADSL_DISCONFL> "Y" .
<http://www.example.org/datasets/ADSL/01-701-1294> <http://www.example.org/datasets/vocab/ADSL_DSRAEFL> "Y" .
<http://www.example.org/datasets/ADSL/01-701-1294> <http://www.example.org/datasets/vocab/ADSL_MMSETOT> "23.0E0"^^<http://www.w3.org/2001/XMLSchema#double> .
<http://www.example.org/datasets/ADSL/01-701-1294> <http://www.example.org/datasets/vocab/ADSL_DCDECOD> "ADVERSE EVENT" .
<http://www.example.org/datasets/ADSL/01-701-1294> <http://www.example.org/datasets/vocab/ADSL_RFENDTC> "2013-06-14" .
<http://www.example.org/datasets/ADSL/01-701-1294> <http://www.example.org/datasets/vocab/ADSL_DISONSDT> "18879.0E0"^^<http://www.w3.org/2001/XMLSchema#double> .
<http://www.example.org/datasets/ADSL/01-701-1294> <http://www.example.org/datasets/vocab/ADSL_AGEGR1> "65-80" .
<http://www.example.org/datasets/ADSL/01-701-1294> <http://www.example.org/datasets/vocab/ADSL_VISIT1DT> "19434.0E0"^^<http://www.w3.org/2001/XMLSchema#double> .
<http://www.example.org/datasets/ADSL/01-701-1294> <http://www.example.org/datasets/vocab/ADSL_COMP8FL> "Y" .
<http://www.example.org/datasets/ADSL/01-701-1294> <http://www.example.org/datasets/vocab/ADSL_SUBJID> "1294" .
<http://www.example.org/datasets/ADSL/01-701-1294> <http://www.w3.org/1999/02/22-rdf-syntax-ns#type> <http://www.example.org/datasets/vocab/ADSL> .
<http://www.example.org/datasets/ADSL/01-701-1302> <http://www.example.org/datasets/vocab/ADSL_TRTSDT> "19599.0E0"^^<http://www.w3.org/2001/XMLSchema#double> .
<http://www.example.org/datasets/ADSL/01-701-1302> <http://www.example.org/datasets/vocab/ADSL_SAFFL> "Y" .
<http://www.example.org/datasets/ADSL/01-701-1302> <http://www.example.org/datasets/vocab/ADSL_TRTEDT> "19667.0E0"^^<http://www.w3.org/2001/XMLSchema#double> .
<http://www.example.org/datasets/ADSL/01-701-1302> <http://www.example.org/datasets/vocab/ADSL_DTHFL> "" .
<http://www.example.org/datasets/ADSL/01-701-1302> <http://www.example.org/datasets/vocab/ADSL_AGE> "61.0E0"^^<http://www.w3.org/2001/XMLSchema#double> .
<http://www.example.org/datasets/ADSL/01-701-1302> <http://www.example.org/datasets/vocab/ADSL_RFSTDTC> "2013-08-29" .
<http://www.example.org/datasets/ADSL/01-701-1302> <http://www.example.org/datasets/vocab/ADSL_SEX> "M" .
<http://www.example.org/datasets/ADSL/01-701-1302> <http://www.example.org/datasets/vocab/ADSL_DURDSGR1> ">=12" .
<http://www.example.org/datasets/ADSL/01-701-1302> <http://www.example.org/datasets/vocab/ADSL_TRTDUR> "69.0E0"^^<http://www.w3.org/2001/XMLSchema#double> .
<http://www.example.org/datasets/ADSL/01-701-1302> <http://www.example.org/datasets/vocab/ADSL_USUBJID> "01-701-1302" .
<http://www.example.org/datasets/ADSL/01-701-1302> <http://www.example.org/datasets/vocab/ADSL_TRT01A> "Xanomeline High Dose" .
<http://www.example.org/datasets/ADSL/01-701-1302> <http://www.example.org/datasets/vocab/ADSL_HEIGHTBL> "177.8E0"^^<http://www.w3.org/2001/XMLSchema#double> .
<http://www.example.org/datasets/ADSL/01-701-1302> <http://www.example.org/datasets/vocab/ADSL_ETHNIC> "NOT HISPANIC OR LATINO" .
<http://www.example.org/datasets/ADSL/01-701-1302> <http://www.example.org/datasets/vocab/ADSL_RACE> "WHITE" .
<http://www.example.org/datasets/ADSL/01-701-1302> <http://www.example.org/datasets/vocab/ADSL_TRT01AN> "81.0E0"^^<http://www.w3.org/2001/XMLSchema#double> .
<http://www.example.org/datasets/ADSL/01-701-1302> <http://www.example.org/datasets/vocab/ADSL_SITEGR1> "701" .
<http://www.example.org/datasets/ADSL/01-701-1302> <http://www.example.org/datasets/vocab/ADSL_TRT01PN> "81.0E0"^^<http://www.w3.org/2001/XMLSchema#double> .
<http://www.example.org/datasets/ADSL/01-701-1302> <http://www.example.org/datasets/vocab/ADSL_VISNUMEN> "9.0E0"^^<http://www.w3.org/2001/XMLSchema#double> .
<http://www.example.org/datasets/ADSL/01-701-1302> <http://www.example.org/datasets/vocab/ADSL_AGEU> "YEARS" .
<http://www.example.org/datasets/ADSL/01-701-1302> <http://www.example.org/datasets/vocab/ADSL_COMP16FL> "N" .
<http://www.example.org/datasets/ADSL/01-701-1302> <http://www.example.org/datasets/vocab/ADSL_AVGDD> "74.0E0"^^<http://www.w3.org/2001/XMLSchema#double> .
<http://www.example.org/datasets/ADSL/01-701-1302> <http://www.example.org/datasets/vocab/ADSL_SITEID> "701" .
<http://www.example.org/datasets/ADSL/01-701-1302> <http://www.example.org/datasets/vocab/ADSL_WEIGHTBL> "82.1E0"^^<http://www.w3.org/2001/XMLSchema#double> .
<http://www.example.org/datasets/ADSL/01-701-1302> <http://www.example.org/datasets/vocab/ADSL_COMP24FL> "N" .
<http://www.example.org/datasets/ADSL/01-701-1302> <http://www.example.org/datasets/vocab/ADSL_DURDIS> "78.4E0"^^<http://www.w3.org/2001/XMLSchema#double> .
<http://www.example.org/datasets/ADSL/01-701-1302> <http://www.example.org/datasets/vocab/ADSL_RACEN> "1.0E0"^^<http://www.w3.org/2001/XMLSchema#double> .
<http://www.example.org/datasets/ADSL/01-701-1302> <http://www.example.org/datasets/vocab/ADSL_ITTFL> "Y" .
<http://www.example.org/datasets/ADSL/01-701-1302> <http://www.example.org/datasets/vocab/ADSL_STUDYID> "CDISCPILOT01" .
<http://www.example.org/datasets/ADSL/01-701-1302> <http://www.example.org/datasets/vocab/ADSL_BMIBLGR1> "25-<30" .
<http://www.example.org/datasets/ADSL/01-701-1302> <http://www.example.org/datasets/vocab/ADSL_TRT01P> "Xanomeline High Dose" .
<http://www.example.org/datasets/ADSL/01-701-1302> <http://www.example.org/datasets/vocab/ADSL_EDUCLVL> "15.0E0"^^<http://www.w3.org/2001/XMLSchema#double> .
<http://www.example.org/datasets/ADSL/01-701-1302> <http://www.example.org/datasets/vocab/ADSL_EFFFL> "Y" .
<http://www.example.org/datasets/ADSL/01-701-1302> <http://www.example.org/datasets/vocab/ADSL_ARM> "Xanomeline High Dose" .
<http://www.example.org/datasets/ADSL/01-701-1302> <http://www.w3.org/2000/01/rdf-schema#label> "ADSL #01-701-1302" .
<http://www.example.org/datasets/ADSL/01-701-1302> <http://www.example.org/datasets/vocab/ADSL_AGEGR1N> "1.0E0"^^<http://www.w3.org/2001/XMLSchema#double> .
<http://www.example.org/datasets/ADSL/01-701-1302> <http://www.example.org/datasets/vocab/ADSL_RFENDT> "19667.0E0"^^<http://www.w3.org/2001/XMLSchema#double> .
<http://www.example.org/datasets/ADSL/01-701-1302> <http://www.example.org/datasets/vocab/ADSL_CUMDOSE> "5103.0E0"^^<http://www.w3.org/2001/XMLSchema#double> .
<http://www.example.org/datasets/ADSL/01-701-1302> <http://www.example.org/datasets/vocab/ADSL_DCREASCD> "Adverse Event" .
<http://www.example.org/datasets/ADSL/01-701-1302> <http://www.example.org/datasets/vocab/ADSL_BMIBL> "26.0E0"^^<http://www.w3.org/2001/XMLSchema#double> .
<http://www.example.org/datasets/ADSL/01-701-1302> <http://www.example.org/datasets/vocab/ADSL_DISCONFL> "Y" .
<http://www.example.org/datasets/ADSL/01-701-1302> <http://www.example.org/datasets/vocab/ADSL_DSRAEFL> "Y" .
<http://www.example.org/datasets/ADSL/01-701-1302> <http://www.example.org/datasets/vocab/ADSL_MMSETOT> "23.0E0"^^<http://www.w3.org/2001/XMLSchema#double> .
<http://www.example.org/datasets/ADSL/01-701-1302> <http://www.example.org/datasets/vocab/ADSL_DCDECOD> "ADVERSE EVENT" .
<http://www.example.org/datasets/ADSL/01-701-1302> <http://www.example.org/datasets/vocab/ADSL_RFENDTC> "2013-11-05" .
<http://www.example.org/datasets/ADSL/01-701-1302> <http://www.example.org/datasets/vocab/ADSL_DISONSDT> "17206.0E0"^^<http://www.w3.org/2001/XMLSchema#double> .
<http://www.example.org/datasets/ADSL/01-701-1302> <http://www.example.org/datasets/vocab/ADSL_AGEGR1> "<65" .
<http://www.example.org/datasets/ADSL/01-701-1302> <http://www.example.org/datasets/vocab/ADSL_VISIT1DT> "19590.0E0"^^<http://www.w3.org/2001/XMLSchema#double> .
<http://www.example.org/datasets/ADSL/01-701-1302> <http://www.example.org/datasets/vocab/ADSL_COMP8FL> "Y" .
<http://www.example.org/datasets/ADSL/01-701-1302> <http://www.example.org/datasets/vocab/ADSL_SUBJID> "1302" .
<http://www.example.org/datasets/ADSL/01-701-1302> <http://www.w3.org/1999/02/22-rdf-syntax-ns#type> <http://www.example.org/datasets/vocab/ADSL> .
<http://www.example.org/datasets/ADSL/01-701-1317> <http://www.example.org/datasets/vocab/ADSL_TRTSDT> "19865.0E0"^^<http://www.w3.org/2001/XMLSchema#double> .
<http://www.example.org/datasets/ADSL/01-701-1317> <http://www.example.org/datasets/vocab/ADSL_SAFFL> "Y" .
<http://www.example.org/datasets/ADSL/01-701-1317> <http://www.example.org/datasets/vocab/ADSL_TRTEDT> "20047.0E0"^^<http://www.w3.org/2001/XMLSchema#double> .
<http://www.example.org/datasets/ADSL/01-701-1317> <http://www.example.org/datasets/vocab/ADSL_DTHFL> "" .
<http://www.example.org/datasets/ADSL/01-701-1317> <http://www.example.org/datasets/vocab/ADSL_AGE> "68.0E0"^^<http://www.w3.org/2001/XMLSchema#double> .
<http://www.example.org/datasets/ADSL/01-701-1317> <http://www.example.org/datasets/vocab/ADSL_RFSTDTC> "2014-05-22" .
<http://www.example.org/datasets/ADSL/01-701-1317> <http://www.example.org/datasets/vocab/ADSL_SEX> "M" .
<http://www.example.org/datasets/ADSL/01-701-1317> <http://www.example.org/datasets/vocab/ADSL_DURDSGR1> "<12" .
<http://www.example.org/datasets/ADSL/01-701-1317> <http://www.example.org/datasets/vocab/ADSL_TRTDUR> "183.0E0"^^<http://www.w3.org/2001/XMLSchema#double> .
<http://www.example.org/datasets/ADSL/01-701-1317> <http://www.example.org/datasets/vocab/ADSL_USUBJID> "01-701-1317" .
<http://www.example.org/datasets/ADSL/01-701-1317> <http://www.example.org/datasets/vocab/ADSL_TRT01A> "Xanomeline Low Dose" .
<http://www.example.org/datasets/ADSL/01-701-1317> <http://www.example.org/datasets/vocab/ADSL_HEIGHTBL> "176.5E0"^^<http://www.w3.org/2001/XMLSchema#double> .
<http://www.example.org/datasets/ADSL/01-701-1317> <http://www.example.org/datasets/vocab/ADSL_ETHNIC> "NOT HISPANIC OR LATINO" .
<http://www.example.org/datasets/ADSL/01-701-1317> <http://www.example.org/datasets/vocab/ADSL_RACE> "WHITE" .
<http://www.example.org/datasets/ADSL/01-701-1317> <http://www.example.org/datasets/vocab/ADSL_TRT01AN> "54.0E0"^^<http://www.w3.org/2001/XMLSchema#double> .
<http://www.example.org/datasets/ADSL/01-701-1317> <http://www.example.org/datasets/vocab/ADSL_SITEGR1> "701" .
<http://www.example.org/datasets/ADSL/01-701-1317> <http://www.example.org/datasets/vocab/ADSL_TRT01PN> "54.0E0"^^<http://www.w3.org/2001/XMLSchema#double> .
<http://www.example.org/datasets/ADSL/01-701-1317> <http://www.example.org/datasets/vocab/ADSL_VISNUMEN> "12.0E0"^^<http://www.w3.org/2001/XMLSchema#double> .
<http://www.example.org/datasets/ADSL/01-701-1317> <http://www.example.org/datasets/vocab/ADSL_AGEU> "YEARS" .
<http://www.example.org/datasets/ADSL/01-701-1317> <http://www.example.org/datasets/vocab/ADSL_COMP16FL> "Y" .
<http://www.example.org/datasets/ADSL/01-701-1317> <http://www.example.org/datasets/vocab/ADSL_AVGDD> "54.0E0"^^<http://www.w3.org/2001/XMLSchema#double> .
<http://www.example.org/datasets/ADSL/01-701-1317> <http://www.example.org/datasets/vocab/ADSL_SITEID> "701" .
<http://www.example.org/datasets/ADSL/01-701-1317> <http://www.example.org/datasets/vocab/ADSL_WEIGHTBL> "66.7E0"^^<http://www.w3.org/2001/XMLSchema#double> .
<http://www.example.org/datasets/ADSL/01-701-1317> <http://www.example.org/datasets/vocab/ADSL_COMP24FL> "Y" .
<http://www.example.org/datasets/ADSL/01-701-1317> <http://www.example.org/datasets/vocab/ADSL_DURDIS> "7.8E0"^^<http://www.w3.org/2001/XMLSchema#double> .
<http://www.example.org/datasets/ADSL/01-701-1317> <http://www.example.org/datasets/vocab/ADSL_RACEN> "1.0E0"^^<http://www.w3.org/2001/XMLSchema#double> .
<http://www.example.org/datasets/ADSL/01-701-1317> <http://www.example.org/datasets/vocab/ADSL_ITTFL> "Y" .
<http://www.example.org/datasets/ADSL/01-701-1317> <http://www.example.org/datasets/vocab/ADSL_STUDYID> "CDISCPILOT01" .
<http://www.example.org/datasets/ADSL/01-701-1317> <http://www.example.org/datasets/vocab/ADSL_BMIBLGR1> "<25" .
<http://www.example.org/datasets/ADSL/01-701-1317> <http://www.example.org/datasets/vocab/ADSL_TRT01P> "Xanomeline Low Dose" .
<http://www.example.org/datasets/ADSL/01-701-1317> <http://www.example.org/datasets/vocab/ADSL_EDUCLVL> "20.0E0"^^<http://www.w3.org/2001/XMLSchema#double> .
<http://www.example.org/datasets/ADSL/01-701-1317> <http://www.example.org/datasets/vocab/ADSL_EFFFL> "Y" .
<http://www.example.org/datasets/ADSL/01-701-1317> <http://www.example.org/datasets/vocab/ADSL_ARM> "Xanomeline Low Dose" .
<http://www.example.org/datasets/ADSL/01-701-1317> <http://www.w3.org/2000/01/rdf-schema#label> "ADSL #01-701-1317" .
<http://www.example.org/datasets/ADSL/01-701-1317> <http://www.example.org/datasets/vocab/ADSL_AGEGR1N> "2.0E0"^^<http://www.w3.org/2001/XMLSchema#double> .
<http://www.example.org/datasets/ADSL/01-701-1317> <http://www.example.org/datasets/vocab/ADSL_RFENDT> "20047.0E0"^^<http://www.w3.org/2001/XMLSchema#double> .
<http://www.example.org/datasets/ADSL/01-701-1317> <http://www.example.org/datasets/vocab/ADSL_CUMDOSE> "9882.0E0"^^<http://www.w3.org/2001/XMLSchema#double> .
<http://www.example.org/datasets/ADSL/01-701-1317> <http://www.example.org/datasets/vocab/ADSL_DCREASCD> "Completed" .
<http://www.example.org/datasets/ADSL/01-701-1317> <http://www.example.org/datasets/vocab/ADSL_BMIBL> "21.4E0"^^<http://www.w3.org/2001/XMLSchema#double> .
<http://www.example.org/datasets/ADSL/01-701-1317> <http://www.example.org/datasets/vocab/ADSL_DISCONFL> "" .
<http://www.example.org/datasets/ADSL/01-701-1317> <http://www.example.org/datasets/vocab/ADSL_DSRAEFL> "" .
<http://www.example.org/datasets/ADSL/01-701-1317> <http://www.example.org/datasets/vocab/ADSL_MMSETOT> "20.0E0"^^<http://www.w3.org/2001/XMLSchema#double> .
<http://www.example.org/datasets/ADSL/01-701-1317> <http://www.example.org/datasets/vocab/ADSL_DCDECOD> "COMPLETED" .
<http://www.example.org/datasets/ADSL/01-701-1317> <http://www.example.org/datasets/vocab/ADSL_RFENDTC> "2014-11-20" .
<http://www.example.org/datasets/ADSL/01-701-1317> <http://www.example.org/datasets/vocab/ADSL_DISONSDT> "19617.0E0"^^<http://www.w3.org/2001/XMLSchema#double> .
<http://www.example.org/datasets/ADSL/01-701-1317> <http://www.example.org/datasets/vocab/ADSL_AGEGR1> "65-80" .
<http://www.example.org/datasets/ADSL/01-701-1317> <http://www.example.org/datasets/vocab/ADSL_VISIT1DT> "19853.0E0"^^<http://www.w3.org/2001/XMLSchema#double> .
<http://www.example.org/datasets/ADSL/01-701-1317> <http://www.example.org/datasets/vocab/ADSL_COMP8FL> "Y" .
<http://www.example.org/datasets/ADSL/01-701-1317> <http://www.example.org/datasets/vocab/ADSL_SUBJID> "1317" .
<http://www.example.org/datasets/ADSL/01-701-1317> <http://www.w3.org/1999/02/22-rdf-syntax-ns#type> <http://www.example.org/datasets/vocab/ADSL> .
<http://www.example.org/datasets/ADSL/01-701-1324> <http://www.example.org/datasets/vocab/ADSL_TRTSDT> "19268.0E0"^^<http://www.w3.org/2001/XMLSchema#double> .
<http://www.example.org/datasets/ADSL/01-701-1324> <http://www.example.org/datasets/vocab/ADSL_SAFFL> "Y" .
<http://www.example.org/datasets/ADSL/01-701-1324> <http://www.example.org/datasets/vocab/ADSL_TRTEDT> "19450.0E0"^^<http://www.w3.org/2001/XMLSchema#double> .
<http://www.example.org/datasets/ADSL/01-701-1324> <http://www.example.org/datasets/vocab/ADSL_DTHFL> "" .
<http://www.example.org/datasets/ADSL/01-701-1324> <http://www.example.org/datasets/vocab/ADSL_AGE> "79.0E0"^^<http://www.w3.org/2001/XMLSchema#double> .
<http://www.example.org/datasets/ADSL/01-701-1324> <http://www.example.org/datasets/vocab/ADSL_RFSTDTC> "2012-10-02" .
<http://www.example.org/datasets/ADSL/01-701-1324> <http://www.example.org/datasets/vocab/ADSL_SEX> "M" .
<http://www.example.org/datasets/ADSL/01-701-1324> <http://www.example.org/datasets/vocab/ADSL_DURDSGR1> ">=12" .
<http://www.example.org/datasets/ADSL/01-701-1324> <http://www.example.org/datasets/vocab/ADSL_TRTDUR> "183.0E0"^^<http://www.w3.org/2001/XMLSchema#double> .
<http://www.example.org/datasets/ADSL/01-701-1324> <http://www.example.org/datasets/vocab/ADSL_USUBJID> "01-701-1324" .
<http://www.example.org/datasets/ADSL/01-701-1324> <http://www.example.org/datasets/vocab/ADSL_TRT01A> "Xanomeline Low Dose" .
<http://www.example.org/datasets/ADSL/01-701-1324> <http://www.example.org/datasets/vocab/ADSL_HEIGHTBL> "166.4E0"^^<http://www.w3.org/2001/XMLSchema#double> .
<http://www.example.org/datasets/ADSL/01-701-1324> <http://www.example.org/datasets/vocab/ADSL_ETHNIC> "NOT HISPANIC OR LATINO" .
<http://www.example.org/datasets/ADSL/01-701-1324> <http://www.example.org/datasets/vocab/ADSL_RACE> "WHITE" .
<http://www.example.org/datasets/ADSL/01-701-1324> <http://www.example.org/datasets/vocab/ADSL_TRT01AN> "54.0E0"^^<http://www.w3.org/2001/XMLSchema#double> .
<http://www.example.org/datasets/ADSL/01-701-1324> <http://www.example.org/datasets/vocab/ADSL_SITEGR1> "701" .
<http://www.example.org/datasets/ADSL/01-701-1324> <http://www.example.org/datasets/vocab/ADSL_TRT01PN> "54.0E0"^^<http://www.w3.org/2001/XMLSchema#double> .
<http://www.example.org/datasets/ADSL/01-701-1324> <http://www.example.org/datasets/vocab/ADSL_VISNUMEN> "12.0E0"^^<http://www.w3.org/2001/XMLSchema#double> .
<http://www.example.org/datasets/ADSL/01-701-1324> <http://www.example.org/datasets/vocab/ADSL_AGEU> "YEARS" .
<http://www.example.org/datasets/ADSL/01-701-1324> <http://www.example.org/datasets/vocab/ADSL_COMP16FL> "Y" .
<http://www.example.org/datasets/ADSL/01-701-1324> <http://www.example.org/datasets/vocab/ADSL_AVGDD> "54.0E0"^^<http://www.w3.org/2001/XMLSchema#double> .
<http://www.example.org/datasets/ADSL/01-701-1324> <http://www.example.org/datasets/vocab/ADSL_SITEID> "701" .
<http://www.example.org/datasets/ADSL/01-701-1324> <http://www.example.org/datasets/vocab/ADSL_WEIGHTBL> "77.1E0"^^<http://www.w3.org/2001/XMLSchema#double> .
<http://www.example.org/datasets/ADSL/01-701-1324> <http://www.example.org/datasets/vocab/ADSL_COMP24FL> "Y" .
<http://www.example.org/datasets/ADSL/01-701-1324> <http://www.example.org/datasets/vocab/ADSL_DURDIS> "35.2E0"^^<http://www.w3.org/2001/XMLSchema#double> .
<http://www.example.org/datasets/ADSL/01-701-1324> <http://www.example.org/datasets/vocab/ADSL_RACEN> "1.0E0"^^<http://www.w3.org/2001/XMLSchema#double> .
<http://www.example.org/datasets/ADSL/01-701-1324> <http://www.example.org/datasets/vocab/ADSL_ITTFL> "Y" .
<http://www.example.org/datasets/ADSL/01-701-1324> <http://www.example.org/datasets/vocab/ADSL_STUDYID> "CDISCPILOT01" .
<http://www.example.org/datasets/ADSL/01-701-1324> <http://www.example.org/datasets/vocab/ADSL_BMIBLGR1> "25-<30" .
<http://www.example.org/datasets/ADSL/01-701-1324> <http://www.example.org/datasets/vocab/ADSL_TRT01P> "Xanomeline Low Dose" .
<http://www.example.org/datasets/ADSL/01-701-1324> <http://www.example.org/datasets/vocab/ADSL_EDUCLVL> "18.0E0"^^<http://www.w3.org/2001/XMLSchema#double> .
<http://www.example.org/datasets/ADSL/01-701-1324> <http://www.example.org/datasets/vocab/ADSL_EFFFL> "Y" .
<http://www.example.org/datasets/ADSL/01-701-1324> <http://www.example.org/datasets/vocab/ADSL_ARM> "Xanomeline Low Dose" .
<http://www.example.org/datasets/ADSL/01-701-1324> <http://www.w3.org/2000/01/rdf-schema#label> "ADSL #01-701-1324" .
<http://www.example.org/datasets/ADSL/01-701-1324> <http://www.example.org/datasets/vocab/ADSL_AGEGR1N> "2.0E0"^^<http://www.w3.org/2001/XMLSchema#double> .
<http://www.example.org/datasets/ADSL/01-701-1324> <http://www.example.org/datasets/vocab/ADSL_RFENDT> "19450.0E0"^^<http://www.w3.org/2001/XMLSchema#double> .
<http://www.example.org/datasets/ADSL/01-701-1324> <http://www.example.org/datasets/vocab/ADSL_CUMDOSE> "9882.0E0"^^<http://www.w3.org/2001/XMLSchema#double> .
<http://www.example.org/datasets/ADSL/01-701-1324> <http://www.example.org/datasets/vocab/ADSL_DCREASCD> "Completed" .
<http://www.example.org/datasets/ADSL/01-701-1324> <http://www.example.org/datasets/vocab/ADSL_BMIBL> "27.8E0"^^<http://www.w3.org/2001/XMLSchema#double> .
<http://www.example.org/datasets/ADSL/01-701-1324> <http://www.example.org/datasets/vocab/ADSL_DISCONFL> "" .
<http://www.example.org/datasets/ADSL/01-701-1324> <http://www.example.org/datasets/vocab/ADSL_DSRAEFL> "" .
<http://www.example.org/datasets/ADSL/01-701-1324> <http://www.example.org/datasets/vocab/ADSL_MMSETOT> "23.0E0"^^<http://www.w3.org/2001/XMLSchema#double> .
<http://www.example.org/datasets/ADSL/01-701-1324> <http://www.example.org/datasets/vocab/ADSL_DCDECOD> "COMPLETED" .
<http://www.example.org/datasets/ADSL/01-701-1324> <http://www.example.org/datasets/vocab/ADSL_RFENDTC> "2013-04-02" .
<http://www.example.org/datasets/ADSL/01-701-1324> <http://www.example.org/datasets/vocab/ADSL_DISONSDT> "18181.0E0"^^<http://www.w3.org/2001/XMLSchema#double> .
<http://www.example.org/datasets/ADSL/01-701-1324> <http://www.example.org/datasets/vocab/ADSL_AGEGR1> "65-80" .
<http://www.example.org/datasets/ADSL/01-701-1324> <http://www.example.org/datasets/vocab/ADSL_VISIT1DT> "19252.0E0"^^<http://www.w3.org/2001/XMLSchema#double> .
<http://www.example.org/datasets/ADSL/01-701-1324> <http://www.example.org/datasets/vocab/ADSL_COMP8FL> "Y" .
<http://www.example.org/datasets/ADSL/01-701-1324> <http://www.example.org/datasets/vocab/ADSL_SUBJID> "1324" .
<http://www.example.org/datasets/ADSL/01-701-1324> <http://www.w3.org/1999/02/22-rdf-syntax-ns#type> <http://www.example.org/datasets/vocab/ADSL> .
<http://www.example.org/datasets/ADSL/01-701-1341> <http://www.example.org/datasets/vocab/ADSL_TRTSDT> "19363.0E0"^^<http://www.w3.org/2001/XMLSchema#double> .
<http://www.example.org/datasets/ADSL/01-701-1341> <http://www.example.org/datasets/vocab/ADSL_SAFFL> "Y" .
<http://www.example.org/datasets/ADSL/01-701-1341> <http://www.example.org/datasets/vocab/ADSL_TRTEDT> "19384.0E0"^^<http://www.w3.org/2001/XMLSchema#double> .
<http://www.example.org/datasets/ADSL/01-701-1341> <http://www.example.org/datasets/vocab/ADSL_DTHFL> "" .
<http://www.example.org/datasets/ADSL/01-701-1341> <http://www.example.org/datasets/vocab/ADSL_AGE> "51.0E0"^^<http://www.w3.org/2001/XMLSchema#double> .
<http://www.example.org/datasets/ADSL/01-701-1341> <http://www.example.org/datasets/vocab/ADSL_RFSTDTC> "2013-01-05" .
<http://www.example.org/datasets/ADSL/01-701-1341> <http://www.example.org/datasets/vocab/ADSL_SEX> "M" .
<http://www.example.org/datasets/ADSL/01-701-1341> <http://www.example.org/datasets/vocab/ADSL_DURDSGR1> ">=12" .
<http://www.example.org/datasets/ADSL/01-701-1341> <http://www.example.org/datasets/vocab/ADSL_TRTDUR> "22.0E0"^^<http://www.w3.org/2001/XMLSchema#double> .
<http://www.example.org/datasets/ADSL/01-701-1341> <http://www.example.org/datasets/vocab/ADSL_USUBJID> "01-701-1341" .
<http://www.example.org/datasets/ADSL/01-701-1341> <http://www.example.org/datasets/vocab/ADSL_TRT01A> "Xanomeline Low Dose" .
<http://www.example.org/datasets/ADSL/01-701-1341> <http://www.example.org/datasets/vocab/ADSL_HEIGHTBL> "157.5E0"^^<http://www.w3.org/2001/XMLSchema#double> .
<http://www.example.org/datasets/ADSL/01-701-1341> <http://www.example.org/datasets/vocab/ADSL_ETHNIC> "NOT HISPANIC OR LATINO" .
<http://www.example.org/datasets/ADSL/01-701-1341> <http://www.example.org/datasets/vocab/ADSL_RACE> "WHITE" .
<http://www.example.org/datasets/ADSL/01-701-1341> <http://www.example.org/datasets/vocab/ADSL_TRT01AN> "54.0E0"^^<http://www.w3.org/2001/XMLSchema#double> .
<http://www.example.org/datasets/ADSL/01-701-1341> <http://www.example.org/datasets/vocab/ADSL_SITEGR1> "701" .
<http://www.example.org/datasets/ADSL/01-701-1341> <http://www.example.org/datasets/vocab/ADSL_TRT01PN> "54.0E0"^^<http://www.w3.org/2001/XMLSchema#double> .
<http://www.example.org/datasets/ADSL/01-701-1341> <http://www.example.org/datasets/vocab/ADSL_VISNUMEN> "5.0E0"^^<http://www.w3.org/2001/XMLSchema#double> .
<http://www.example.org/datasets/ADSL/01-701-1341> <http://www.example.org/datasets/vocab/ADSL_AGEU> "YEARS" .
<http://www.example.org/datasets/ADSL/01-701-1341> <http://www.example.org/datasets/vocab/ADSL_COMP16FL> "N" .
<http://www.example.org/datasets/ADSL/01-701-1341> <http://www.example.org/datasets/vocab/ADSL_AVGDD> "54.0E0"^^<http://www.w3.org/2001/XMLSchema#double> .
<http://www.example.org/datasets/ADSL/01-701-1341> <http://www.example.org/datasets/vocab/ADSL_SITEID> "701" .
<http://www.example.org/datasets/ADSL/01-701-1341> <http://www.example.org/datasets/vocab/ADSL_WEIGHTBL> "70.8E0"^^<http://www.w3.org/2001/XMLSchema#double> .
<http://www.example.org/datasets/ADSL/01-701-1341> <http://www.example.org/datasets/vocab/ADSL_COMP24FL> "N" .
<http://www.example.org/datasets/ADSL/01-701-1341> <http://www.example.org/datasets/vocab/ADSL_DURDIS> "78.6E0"^^<http://www.w3.org/2001/XMLSchema#double> .
<http://www.example.org/datasets/ADSL/01-701-1341> <http://www.example.org/datasets/vocab/ADSL_RACEN> "1.0E0"^^<http://www.w3.org/2001/XMLSchema#double> .
<http://www.example.org/datasets/ADSL/01-701-1341> <http://www.example.org/datasets/vocab/ADSL_ITTFL> "Y" .
<http://www.example.org/datasets/ADSL/01-701-1341> <http://www.example.org/datasets/vocab/ADSL_STUDYID> "CDISCPILOT01" .
<http://www.example.org/datasets/ADSL/01-701-1341> <http://www.example.org/datasets/vocab/ADSL_BMIBLGR1> "25-<30" .
<http://www.example.org/datasets/ADSL/01-701-1341> <http://www.example.org/datasets/vocab/ADSL_TRT01P> "Xanomeline Low Dose" .
<http://www.example.org/datasets/ADSL/01-701-1341> <http://www.example.org/datasets/vocab/ADSL_EDUCLVL> "24.0E0"^^<http://www.w3.org/2001/XMLSchema#double> .
<http://www.example.org/datasets/ADSL/01-701-1341> <http://www.example.org/datasets/vocab/ADSL_EFFFL> "Y" .
<http://www.example.org/datasets/ADSL/01-701-1341> <http://www.example.org/datasets/vocab/ADSL_ARM> "Xanomeline Low Dose" .
<http://www.example.org/datasets/ADSL/01-701-1341> <http://www.w3.org/2000/01/rdf-schema#label> "ADSL #01-701-1341" .
<http://www.example.org/datasets/ADSL/01-701-1341> <http://www.example.org/datasets/vocab/ADSL_AGEGR1N> "1.0E0"^^<http://www.w3.org/2001/XMLSchema#double> .
<http://www.example.org/datasets/ADSL/01-701-1341> <http://www.example.org/datasets/vocab/ADSL_RFENDT> "19396.0E0"^^<http://www.w3.org/2001/XMLSchema#double> .
<http://www.example.org/datasets/ADSL/01-701-1341> <http://www.example.org/datasets/vocab/ADSL_CUMDOSE> "1188.0E0"^^<http://www.w3.org/2001/XMLSchema#double> .
<http://www.example.org/datasets/ADSL/01-701-1341> <http://www.example.org/datasets/vocab/ADSL_DCREASCD> "Adverse Event" .
<http://www.example.org/datasets/ADSL/01-701-1341> <http://www.example.org/datasets/vocab/ADSL_BMIBL> "28.5E0"^^<http://www.w3.org/2001/XMLSchema#double> .
<http://www.example.org/datasets/ADSL/01-701-1341> <http://www.example.org/datasets/vocab/ADSL_DISCONFL> "Y" .
<http://www.example.org/datasets/ADSL/01-701-1341> <http://www.example.org/datasets/vocab/ADSL_DSRAEFL> "Y" .
<http://www.example.org/datasets/ADSL/01-701-1341> <http://www.example.org/datasets/vocab/ADSL_MMSETOT> "23.0E0"^^<http://www.w3.org/2001/XMLSchema#double> .
<http://www.example.org/datasets/ADSL/01-701-1341> <http://www.example.org/datasets/vocab/ADSL_DCDECOD> "ADVERSE EVENT" .
<http://www.example.org/datasets/ADSL/01-701-1341> <http://www.example.org/datasets/vocab/ADSL_RFENDTC> "2013-02-07" .
<http://www.example.org/datasets/ADSL/01-701-1341> <http://www.example.org/datasets/vocab/ADSL_DISONSDT> "16957.0E0"^^<http://www.w3.org/2001/XMLSchema#double> .
<http://www.example.org/datasets/ADSL/01-701-1341> <http://www.example.org/datasets/vocab/ADSL_AGEGR1> "<65" .
<http://www.example.org/datasets/ADSL/01-701-1341> <http://www.example.org/datasets/vocab/ADSL_VISIT1DT> "19349.0E0"^^<http://www.w3.org/2001/XMLSchema#double> .
<http://www.example.org/datasets/ADSL/01-701-1341> <http://www.example.org/datasets/vocab/ADSL_COMP8FL> "N" .
<http://www.example.org/datasets/ADSL/01-701-1341> <http://www.example.org/datasets/vocab/ADSL_SUBJID> "1341" .
<http://www.example.org/datasets/ADSL/01-701-1341> <http://www.w3.org/1999/02/22-rdf-syntax-ns#type> <http://www.example.org/datasets/vocab/ADSL> .
<http://www.example.org/datasets/ADSL/01-701-1345> <http://www.example.org/datasets/vocab/ADSL_TRTSDT> "19639.0E0"^^<http://www.w3.org/2001/XMLSchema#double> .
<http://www.example.org/datasets/ADSL/01-701-1345> <http://www.example.org/datasets/vocab/ADSL_SAFFL> "Y" .
<http://www.example.org/datasets/ADSL/01-701-1345> <http://www.example.org/datasets/vocab/ADSL_TRTEDT> "19800.0E0"^^<http://www.w3.org/2001/XMLSchema#double> .
<http://www.example.org/datasets/ADSL/01-701-1345> <http://www.example.org/datasets/vocab/ADSL_DTHFL> "" .
<http://www.example.org/datasets/ADSL/01-701-1345> <http://www.example.org/datasets/vocab/ADSL_AGE> "63.0E0"^^<http://www.w3.org/2001/XMLSchema#double> .
<http://www.example.org/datasets/ADSL/01-701-1345> <http://www.example.org/datasets/vocab/ADSL_RFSTDTC> "2013-10-08" .
