"trta","aesoc","aedecod","saffl","procedure","factor","measure","rowno","colno","cellpartno","unit","denominator"
"Placebo","_ALL_","_ALL_","Y","count","quantity",301,1,1,1,"_NULL_","_NULL_"
"Placebo","_ALL_","_ALL_","Y","countdistinct","USUBJID",69,1,1,2,"_NULL_","_NULL_"
"Placebo","CARDIAC DISORDERS","_ALL_","Y","count","quantity",27,2,1,1,"_NULL_","_NULL_"
"Placebo","CARDIAC DISORDERS","_ALL_","Y","countdistinct","USUBJID",13,2,1,2,"_NULL_","_NULL_"
"Placebo","CARDIAC DISORDERS","ATRIAL FIBRILLATION","Y","count","quantity",1,3,1,1,"_NULL_","_NULL_"
"Placebo","CARDIAC DISORDERS","ATRIAL FIBRILLATION","Y","countdistinct","USUBJID",1,3,1,2,"_NULL_","_NULL_"
"Placebo","CARDIAC DISORDERS","ATRIAL HYPERTROPHY","Y","count","quantity",2,5,1,1,"_NULL_","_NULL_"
"Placebo","CARDIAC DISORDERS","ATRIAL HYPERTROPHY","Y","countdistinct","USUBJID",1,5,1,2,"_NULL_","_NULL_"
"Placebo","CARDIAC DISORDERS","ATRIOVENTRICULAR BLOCK FIRST DEGREE","Y","count","quantity",1,6,1,1,"_NULL_","_NULL_"
"Placebo","CARDIAC DISORDERS","ATRIOVENTRICULAR BLOCK FIRST DEGREE","Y","countdistinct","USUBJID",1,6,1,2,"_NULL_","_NULL_"
"Placebo","CARDIAC DISORDERS","ATRIOVENTRICULAR BLOCK SECOND DEGREE","Y","count","quantity",2,7,1,1,"_NULL_","_NULL_"
"Placebo","CARDIAC DISORDERS","ATRIOVENTRICULAR BLOCK SECOND DEGREE","Y","countdistinct","USUBJID",2,7,1,2,"_NULL_","_NULL_"
"Placebo","CARDIAC DISORDERS","BRADYCARDIA","Y","count","quantity",4,8,1,1,"_NULL_","_NULL_"
"Placebo","CARDIAC DISORDERS","BRADYCARDIA","Y","countdistinct","USUBJID",1,8,1,2,"_NULL_","_NULL_"
"Placebo","CARDIAC DISORDERS","BUNDLE BRANCH BLOCK LEFT","Y","count","quantity",1,9,1,1,"_NULL_","_NULL_"
"Placebo","CARDIAC DISORDERS","BUNDLE BRANCH BLOCK LEFT","Y","countdistinct","USUBJID",1,9,1,2,"_NULL_","_NULL_"
"Placebo","CARDIAC DISORDERS","BUNDLE BRANCH BLOCK RIGHT","Y","count","quantity",2,10,1,1,"_NULL_","_NULL_"
"Placebo","CARDIAC DISORDERS","BUNDLE BRANCH BLOCK RIGHT","Y","countdistinct","USUBJID",1,10,1,2,"_NULL_","_NULL_"
"Placebo","CARDIAC DISORDERS","CARDIAC FAILURE CONGESTIVE","Y","count","quantity",1,12,1,1,"_NULL_","_NULL_"
"Placebo","CARDIAC DISORDERS","CARDIAC FAILURE CONGESTIVE","Y","countdistinct","USUBJID",1,12,1,2,"_NULL_","_NULL_"
"Placebo","CARDIAC DISORDERS","MYOCARDIAL INFARCTION","Y","count","quantity",4,13,1,1,"_NULL_","_NULL_"
"Placebo","CARDIAC DISORDERS","MYOCARDIAL INFARCTION","Y","countdistinct","USUBJID",4,13,1,2,"_NULL_","_NULL_"
"Placebo","CARDIAC DISORDERS","SINUS ARRHYTHMIA","Y","count","quantity",2,15,1,1,"_NULL_","_NULL_"
"Placebo","CARDIAC DISORDERS","SINUS ARRHYTHMIA","Y","countdistinct","USUBJID",1,15,1,2,"_NULL_","_NULL_"
"Placebo","CARDIAC DISORDERS","SINUS BRADYCARDIA","Y","count","quantity",2,16,1,1,"_NULL_","_NULL_"
"Placebo","CARDIAC DISORDERS","SINUS BRADYCARDIA","Y","countdistinct","USUBJID",2,16,1,2,"_NULL_","_NULL_"
"Placebo","CARDIAC DISORDERS","SUPRAVENTRICULAR EXTRASYSTOLES","Y","count","quantity",2,17,1,1,"_NULL_","_NULL_"
"Placebo","CARDIAC DISORDERS","SUPRAVENTRICULAR EXTRASYSTOLES","Y","countdistinct","USUBJID",1,17,1,2,"_NULL_","_NULL_"
"Placebo","CARDIAC DISORDERS","TACHYCARDIA","Y","count","quantity",2,19,1,1,"_NULL_","_NULL_"
"Placebo","CARDIAC DISORDERS","TACHYCARDIA","Y","countdistinct","USUBJID",1,19,1,2,"_NULL_","_NULL_"
"Placebo","CARDIAC DISORDERS","VENTRICULAR HYPERTROPHY","Y","count","quantity",1,21,1,1,"_NULL_","_NULL_"
"Placebo","CARDIAC DISORDERS","VENTRICULAR HYPERTROPHY","Y","countdistinct","USUBJID",1,21,1,2,"_NULL_","_NULL_"
"Placebo","EAR AND LABYRINTH DISORDERS","_ALL_","Y","count","quantity",2,25,1,1,"_NULL_","_NULL_"
"Placebo","EAR AND LABYRINTH DISORDERS","_ALL_","Y","countdistinct","USUBJID",1,25,1,2,"_NULL_","_NULL_"
"Placebo","EAR AND LABYRINTH DISORDERS","EAR PAIN","Y","count","quantity",2,27,1,1,"_NULL_","_NULL_"
"Placebo","EAR AND LABYRINTH DISORDERS","EAR PAIN","Y","countdistinct","USUBJID",1,27,1,2,"_NULL_","_NULL_"
"Placebo","EYE DISORDERS","_ALL_","Y","count","quantity",8,30,1,1,"_NULL_","_NULL_"
"Placebo","EYE DISORDERS","_ALL_","Y","countdistinct","USUBJID",4,30,1,2,"_NULL_","_NULL_"
"Placebo","EYE DISORDERS","CONJUNCTIVITIS","Y","count","quantity",4,32,1,1,"_NULL_","_NULL_"
"Placebo","EYE DISORDERS","CONJUNCTIVITIS","Y","countdistinct","USUBJID",2,32,1,2,"_NULL_","_NULL_"
"Placebo","EYE DISORDERS","EYE ALLERGY","Y","count","quantity",1,33,1,1,"_NULL_","_NULL_"
"Placebo","EYE DISORDERS","EYE ALLERGY","Y","countdistinct","USUBJID",1,33,1,2,"_NULL_","_NULL_"
"Placebo","EYE DISORDERS","EYE PRURITUS","Y","count","quantity",1,34,1,1,"_NULL_","_NULL_"
"Placebo","EYE DISORDERS","EYE PRURITUS","Y","countdistinct","USUBJID",1,34,1,2,"_NULL_","_NULL_"
"Placebo","EYE DISORDERS","EYE SWELLING","Y","count","quantity",1,35,1,1,"_NULL_","_NULL_"
"Placebo","EYE DISORDERS","EYE SWELLING","Y","countdistinct","USUBJID",1,35,1,2,"_NULL_","_NULL_"
"Placebo","EYE DISORDERS","GLAUCOMA","Y","count","quantity",1,36,1,1,"_NULL_","_NULL_"
"Placebo","EYE DISORDERS","GLAUCOMA","Y","countdistinct","USUBJID",1,36,1,2,"_NULL_","_NULL_"
"Placebo","GASTROINTESTINAL DISORDERS","_ALL_","Y","count","quantity",26,38,1,1,"_NULL_","_NULL_"
"Placebo","GASTROINTESTINAL DISORDERS","_ALL_","Y","countdistinct","USUBJID",17,38,1,2,"_NULL_","_NULL_"
"Placebo","GASTROINTESTINAL DISORDERS","ABDOMINAL PAIN","Y","count","quantity",1,40,1,1,"_NULL_","_NULL_"
"Placebo","GASTROINTESTINAL DISORDERS","ABDOMINAL PAIN","Y","countdistinct","USUBJID",1,40,1,2,"_NULL_","_NULL_"
"Placebo","GASTROINTESTINAL DISORDERS","CONSTIPATION","Y","count","quantity",1,41,1,1,"_NULL_","_NULL_"
"Placebo","GASTROINTESTINAL DISORDERS","CONSTIPATION","Y","countdistinct","USUBJID",1,41,1,2,"_NULL_","_NULL_"
"Placebo","GASTROINTESTINAL DISORDERS","DIARRHOEA","Y","count","quantity",10,42,1,1,"_NULL_","_NULL_"
"Placebo","GASTROINTESTINAL DISORDERS","DIARRHOEA","Y","countdistinct","USUBJID",9,42,1,2,"_NULL_","_NULL_"
"Placebo","GASTROINTESTINAL DISORDERS","DYSPEPSIA","Y","count","quantity",2,43,1,1,"_NULL_","_NULL_"
"Placebo","GASTROINTESTINAL DISORDERS","DYSPEPSIA","Y","countdistinct","USUBJID",1,43,1,2,"_NULL_","_NULL_"
"Placebo","GASTROINTESTINAL DISORDERS","FLATULENCE","Y","count","quantity",2,45,1,1,"_NULL_","_NULL_"
"Placebo","GASTROINTESTINAL DISORDERS","FLATULENCE","Y","countdistinct","USUBJID",1,45,1,2,"_NULL_","_NULL_"
"Placebo","GASTROINTESTINAL DISORDERS","GASTROOESOPHAGEAL REFLUX DISEASE","Y","count","quantity",1,47,1,1,"_NULL_","_NULL_"
"Placebo","GASTROINTESTINAL DISORDERS","GASTROOESOPHAGEAL REFLUX DISEASE","Y","countdistinct","USUBJID",1,47,1,2,"_NULL_","_NULL_"
"Placebo","GASTROINTESTINAL DISORDERS","GLOSSITIS","Y","count","quantity",1,48,1,1,"_NULL_","_NULL_"
"Placebo","GASTROINTESTINAL DISORDERS","GLOSSITIS","Y","countdistinct","USUBJID",1,48,1,2,"_NULL_","_NULL_"
"Placebo","GASTROINTESTINAL DISORDERS","HIATUS HERNIA","Y","count","quantity",2,49,1,1,"_NULL_","_NULL_"
"Placebo","GASTROINTESTINAL DISORDERS","HIATUS HERNIA","Y","countdistinct","USUBJID",1,49,1,2,"_NULL_","_NULL_"
"Placebo","GASTROINTESTINAL DISORDERS","NAUSEA","Y","count","quantity",3,50,1,1,"_NULL_","_NULL_"
"Placebo","GASTROINTESTINAL DISORDERS","NAUSEA","Y","countdistinct","USUBJID",3,50,1,2,"_NULL_","_NULL_"
"Placebo","GASTROINTESTINAL DISORDERS","VOMITING","Y","count","quantity",3,54,1,1,"_NULL_","_NULL_"
"Placebo","GASTROINTESTINAL DISORDERS","VOMITING","Y","countdistinct","USUBJID",3,54,1,2,"_NULL_","_NULL_"
"Placebo","GENERAL DISORDERS AND ADMINISTRATION SITE CONDITIONS","_ALL_","Y","count","quantity",48,55,1,1,"_NULL_","_NULL_"
"Placebo","GENERAL DISORDERS AND ADMINISTRATION SITE CONDITIONS","_ALL_","Y","countdistinct","USUBJID",21,55,1,2,"_NULL_","_NULL_"
"Placebo","GENERAL DISORDERS AND ADMINISTRATION SITE CONDITIONS","APPLICATION SITE DERMATITIS","Y","count","quantity",9,57,1,1,"_NULL_","_NULL_"
"Placebo","GENERAL DISORDERS AND ADMINISTRATION SITE CONDITIONS","APPLICATION SITE DERMATITIS","Y","countdistinct","USUBJID",5,57,1,2,"_NULL_","_NULL_"
"Placebo","GENERAL DISORDERS AND ADMINISTRATION SITE CONDITIONS","APPLICATION SITE ERYTHEMA","Y","count","quantity",3,61,1,1,"_NULL_","_NULL_"
"Placebo","GENERAL DISORDERS AND ADMINISTRATION SITE CONDITIONS","APPLICATION SITE ERYTHEMA","Y","countdistinct","USUBJID",3,61,1,2,"_NULL_","_NULL_"
"Placebo","GENERAL DISORDERS AND ADMINISTRATION SITE CONDITIONS","APPLICATION SITE INDURATION","Y","count","quantity",1,62,1,1,"_NULL_","_NULL_"
"Placebo","GENERAL DISORDERS AND ADMINISTRATION SITE CONDITIONS","APPLICATION SITE INDURATION","Y","countdistinct","USUBJID",1,62,1,2,"_NULL_","_NULL_"
"Placebo","GENERAL DISORDERS AND ADMINISTRATION SITE CONDITIONS","APPLICATION SITE IRRITATION","Y","count","quantity",7,63,1,1,"_NULL_","_NULL_"
"Placebo","GENERAL DISORDERS AND ADMINISTRATION SITE CONDITIONS","APPLICATION SITE IRRITATION","Y","countdistinct","USUBJID",3,63,1,2,"_NULL_","_NULL_"
"Placebo","GENERAL DISORDERS AND ADMINISTRATION SITE CONDITIONS","APPLICATION SITE PRURITUS","Y","count","quantity",10,66,1,1,"_NULL_","_NULL_"
"Placebo","GENERAL DISORDERS AND ADMINISTRATION SITE CONDITIONS","APPLICATION SITE PRURITUS","Y","countdistinct","USUBJID",6,66,1,2,"_NULL_","_NULL_"
"Placebo","GENERAL DISORDERS AND ADMINISTRATION SITE CONDITIONS","APPLICATION SITE REACTION","Y","count","quantity",2,67,1,1,"_NULL_","_NULL_"
"Placebo","GENERAL DISORDERS AND ADMINISTRATION SITE CONDITIONS","APPLICATION SITE REACTION","Y","countdistinct","USUBJID",1,67,1,2,"_NULL_","_NULL_"
"Placebo","GENERAL DISORDERS AND ADMINISTRATION SITE CONDITIONS","APPLICATION SITE VESICLES","Y","count","quantity",2,70,1,1,"_NULL_","_NULL_"
"Placebo","GENERAL DISORDERS AND ADMINISTRATION SITE CONDITIONS","APPLICATION SITE VESICLES","Y","countdistinct","USUBJID",1,70,1,2,"_NULL_","_NULL_"
"Placebo","GENERAL DISORDERS AND ADMINISTRATION SITE CONDITIONS","ASTHENIA","Y","count","quantity",2,72,1,1,"_NULL_","_NULL_"
"Placebo","GENERAL DISORDERS AND ADMINISTRATION SITE CONDITIONS","ASTHENIA","Y","countdistinct","USUBJID",1,72,1,2,"_NULL_","_NULL_"
"Placebo","GENERAL DISORDERS AND ADMINISTRATION SITE CONDITIONS","CHILLS","Y","count","quantity",3,75,1,1,"_NULL_","_NULL_"
"Placebo","GENERAL DISORDERS AND ADMINISTRATION SITE CONDITIONS","CHILLS","Y","countdistinct","USUBJID",1,75,1,2,"_NULL_","_NULL_"
"Placebo","GENERAL DISORDERS AND ADMINISTRATION SITE CONDITIONS","FATIGUE","Y","count","quantity",2,77,1,1,"_NULL_","_NULL_"
"Placebo","GENERAL DISORDERS AND ADMINISTRATION SITE CONDITIONS","FATIGUE","Y","countdistinct","USUBJID",1,77,1,2,"_NULL_","_NULL_"
"Placebo","GENERAL DISORDERS AND ADMINISTRATION SITE CONDITIONS","OEDEMA PERIPHERAL","Y","count","quantity",5,83,1,1,"_NULL_","_NULL_"
"Placebo","GENERAL DISORDERS AND ADMINISTRATION SITE CONDITIONS","OEDEMA PERIPHERAL","Y","countdistinct","USUBJID",2,83,1,2,"_NULL_","_NULL_"
"Placebo","GENERAL DISORDERS AND ADMINISTRATION SITE CONDITIONS","PYREXIA","Y","count","quantity",2,85,1,1,"_NULL_","_NULL_"
"Placebo","GENERAL DISORDERS AND ADMINISTRATION SITE CONDITIONS","PYREXIA","Y","countdistinct","USUBJID",2,85,1,2,"_NULL_","_NULL_"
"Placebo","HEPATOBILIARY DISORDERS","_ALL_","Y","count","quantity",1,90,1,1,"_NULL_","_NULL_"
"Placebo","HEPATOBILIARY DISORDERS","_ALL_","Y","countdistinct","USUBJID",1,90,1,2,"_NULL_","_NULL_"
"Placebo","HEPATOBILIARY DISORDERS","HYPERBILIRUBINAEMIA","Y","count","quantity",1,91,1,1,"_NULL_","_NULL_"
"Placebo","HEPATOBILIARY DISORDERS","HYPERBILIRUBINAEMIA","Y","countdistinct","USUBJID",1,91,1,2,"_NULL_","_NULL_"
"Placebo","INFECTIONS AND INFESTATIONS","_ALL_","Y","count","quantity",35,95,1,1,"_NULL_","_NULL_"
"Placebo","INFECTIONS AND INFESTATIONS","_ALL_","Y","countdistinct","USUBJID",16,95,1,2,"_NULL_","_NULL_"
"Placebo","INFECTIONS AND INFESTATIONS","BRONCHITIS","Y","count","quantity",1,96,1,1,"_NULL_","_NULL_"
"Placebo","INFECTIONS AND INFESTATIONS","BRONCHITIS","Y","countdistinct","USUBJID",1,96,1,2,"_NULL_","_NULL_"
"Placebo","INFECTIONS AND INFESTATIONS","CERVICITIS","Y","count","quantity",2,98,1,1,"_NULL_","_NULL_"
"Placebo","INFECTIONS AND INFESTATIONS","CERVICITIS","Y","countdistinct","USUBJID",1,98,1,2,"_NULL_","_NULL_"
"Placebo","INFECTIONS AND INFESTATIONS","CYSTITIS","Y","count","quantity",1,99,1,1,"_NULL_","_NULL_"
"Placebo","INFECTIONS AND INFESTATIONS","CYSTITIS","Y","countdistinct","USUBJID",1,99,1,2,"_NULL_","_NULL_"
"Placebo","INFECTIONS AND INFESTATIONS","EAR INFECTION","Y","count","quantity",4,100,1,1,"_NULL_","_NULL_"
"Placebo","INFECTIONS AND INFESTATIONS","EAR INFECTION","Y","countdistinct","USUBJID",2,100,1,2,"_NULL_","_NULL_"
"Placebo","INFECTIONS AND INFESTATIONS","GASTROENTERITIS VIRAL","Y","count","quantity",1,101,1,1,"_NULL_","_NULL_"
"Placebo","INFECTIONS AND INFESTATIONS","GASTROENTERITIS VIRAL","Y","countdistinct","USUBJID",1,101,1,2,"_NULL_","_NULL_"
"Placebo","INFECTIONS AND INFESTATIONS","INFLUENZA","Y","count","quantity",2,103,1,1,"_NULL_","_NULL_"
"Placebo","INFECTIONS AND INFESTATIONS","INFLUENZA","Y","countdistinct","USUBJID",1,103,1,2,"_NULL_","_NULL_"
"Placebo","INFECTIONS AND INFESTATIONS","LOCALISED INFECTION","Y","count","quantity",2,104,1,1,"_NULL_","_NULL_"
"Placebo","INFECTIONS AND INFESTATIONS","LOCALISED INFECTION","Y","countdistinct","USUBJID",1,104,1,2,"_NULL_","_NULL_"
"Placebo","INFECTIONS AND INFESTATIONS","NASOPHARYNGITIS","Y","count","quantity",4,106,1,1,"_NULL_","_NULL_"
"Placebo","INFECTIONS AND INFESTATIONS","NASOPHARYNGITIS","Y","countdistinct","USUBJID",2,106,1,2,"_NULL_","_NULL_"
"Placebo","INFECTIONS AND INFESTATIONS","UPPER RESPIRATORY TRACT INFECTION","Y","count","quantity",12,110,1,1,"_NULL_","_NULL_"
"Placebo","INFECTIONS AND INFESTATIONS","UPPER RESPIRATORY TRACT INFECTION","Y","countdistinct","USUBJID",6,110,1,2,"_NULL_","_NULL_"
"Placebo","INFECTIONS AND INFESTATIONS","URINARY TRACT INFECTION","Y","count","quantity",4,111,1,1,"_NULL_","_NULL_"
"Placebo","INFECTIONS AND INFESTATIONS","URINARY TRACT INFECTION","Y","countdistinct","USUBJID",2,111,1,2,"_NULL_","_NULL_"
"Placebo","INFECTIONS AND INFESTATIONS","VAGINAL MYCOSIS","Y","count","quantity",2,112,1,1,"_NULL_","_NULL_"
"Placebo","INFECTIONS AND INFESTATIONS","VAGINAL MYCOSIS","Y","countdistinct","USUBJID",1,112,1,2,"_NULL_","_NULL_"
"Placebo","INJURY, POISONING AND PROCEDURAL COMPLICATIONS","_ALL_","Y","count","quantity",9,114,1,1,"_NULL_","_NULL_"
"Placebo","INJURY, POISONING AND PROCEDURAL COMPLICATIONS","_ALL_","Y","countdistinct","USUBJID",4,114,1,2,"_NULL_","_NULL_"
"Placebo","INJURY, POISONING AND PROCEDURAL COMPLICATIONS","CONTUSION","Y","count","quantity",1,115,1,1,"_NULL_","_NULL_"
"Placebo","INJURY, POISONING AND PROCEDURAL COMPLICATIONS","CONTUSION","Y","countdistinct","USUBJID",1,115,1,2,"_NULL_","_NULL_"
"Placebo","INJURY, POISONING AND PROCEDURAL COMPLICATIONS","EXCORIATION","Y","count","quantity",3,116,1,1,"_NULL_","_NULL_"
"Placebo","INJURY, POISONING AND PROCEDURAL COMPLICATIONS","EXCORIATION","Y","countdistinct","USUBJID",2,116,1,2,"_NULL_","_NULL_"
"Placebo","INJURY, POISONING AND PROCEDURAL COMPLICATIONS","FALL","Y","count","quantity",2,118,1,1,"_NULL_","_NULL_"
"Placebo","INJURY, POISONING AND PROCEDURAL COMPLICATIONS","FALL","Y","countdistinct","USUBJID",1,118,1,2,"_NULL_","_NULL_"
"Placebo","INJURY, POISONING AND PROCEDURAL COMPLICATIONS","HIP FRACTURE","Y","count","quantity",2,119,1,1,"_NULL_","_NULL_"
"Placebo","INJURY, POISONING AND PROCEDURAL COMPLICATIONS","HIP FRACTURE","Y","countdistinct","USUBJID",1,119,1,2,"_NULL_","_NULL_"
"Placebo","INJURY, POISONING AND PROCEDURAL COMPLICATIONS","SKIN LACERATION","Y","count","quantity",1,121,1,1,"_NULL_","_NULL_"
"Placebo","INJURY, POISONING AND PROCEDURAL COMPLICATIONS","SKIN LACERATION","Y","countdistinct","USUBJID",1,121,1,2,"_NULL_","_NULL_"
"Placebo","INVESTIGATIONS","_ALL_","Y","count","quantity",19,123,1,1,"_NULL_","_NULL_"
"Placebo","INVESTIGATIONS","_ALL_","Y","countdistinct","USUBJID",10,123,1,2,"_NULL_","_NULL_"
"Placebo","INVESTIGATIONS","BLOOD ALKALINE PHOSPHATASE INCREASED","Y","count","quantity",1,126,1,1,"_NULL_","_NULL_"
"Placebo","INVESTIGATIONS","BLOOD ALKALINE PHOSPHATASE INCREASED","Y","countdistinct","USUBJID",1,126,1,2,"_NULL_","_NULL_"
"Placebo","INVESTIGATIONS","BLOOD CREATINE PHOSPHOKINASE INCREASED","Y","count","quantity",2,128,1,1,"_NULL_","_NULL_"
"Placebo","INVESTIGATIONS","BLOOD CREATINE PHOSPHOKINASE INCREASED","Y","countdistinct","USUBJID",1,128,1,2,"_NULL_","_NULL_"
"Placebo","INVESTIGATIONS","BLOOD URINE PRESENT","Y","count","quantity",1,130,1,1,"_NULL_","_NULL_"
"Placebo","INVESTIGATIONS","BLOOD URINE PRESENT","Y","countdistinct","USUBJID",1,130,1,2,"_NULL_","_NULL_"
"Placebo","INVESTIGATIONS","CYSTOSCOPY","Y","count","quantity",1,132,1,1,"_NULL_","_NULL_"
"Placebo","INVESTIGATIONS","CYSTOSCOPY","Y","countdistinct","USUBJID",1,132,1,2,"_NULL_","_NULL_"
"Placebo","INVESTIGATIONS","ELECTROCARDIOGRAM ST SEGMENT DEPRESSION","Y","count","quantity",4,133,1,1,"_NULL_","_NULL_"
"Placebo","INVESTIGATIONS","ELECTROCARDIOGRAM ST SEGMENT DEPRESSION","Y","countdistinct","USUBJID",4,133,1,2,"_NULL_","_NULL_"
"Placebo","INVESTIGATIONS","ELECTROCARDIOGRAM T WAVE AMPLITUDE DECREASED","Y","count","quantity",1,134,1,1,"_NULL_","_NULL_"
"Placebo","INVESTIGATIONS","ELECTROCARDIOGRAM T WAVE AMPLITUDE DECREASED","Y","countdistinct","USUBJID",1,134,1,2,"_NULL_","_NULL_"
"Placebo","INVESTIGATIONS","ELECTROCARDIOGRAM T WAVE INVERSION","Y","count","quantity",3,135,1,1,"_NULL_","_NULL_"
"Placebo","INVESTIGATIONS","ELECTROCARDIOGRAM T WAVE INVERSION","Y","countdistinct","USUBJID",2,135,1,2,"_NULL_","_NULL_"
"Placebo","INVESTIGATIONS","HEART RATE INCREASED","Y","count","quantity",2,136,1,1,"_NULL_","_NULL_"
"Placebo","INVESTIGATIONS","HEART RATE INCREASED","Y","countdistinct","USUBJID",1,136,1,2,"_NULL_","_NULL_"
"Placebo","INVESTIGATIONS","HEART RATE IRREGULAR","Y","count","quantity",4,137,1,1,"_NULL_","_NULL_"
"Placebo","INVESTIGATIONS","HEART RATE IRREGULAR","Y","countdistinct","USUBJID",1,137,1,2,"_NULL_","_NULL_"
"Placebo","METABOLISM AND NUTRITION DISORDERS","_ALL_","Y","count","quantity",8,143,1,1,"_NULL_","_NULL_"
"Placebo","METABOLISM AND NUTRITION DISORDERS","_ALL_","Y","countdistinct","USUBJID",6,143,1,2,"_NULL_","_NULL_"
"Placebo","METABOLISM AND NUTRITION DISORDERS","DECREASED APPETITE","Y","count","quantity",2,144,1,1,"_NULL_","_NULL_"
"Placebo","METABOLISM AND NUTRITION DISORDERS","DECREASED APPETITE","Y","countdistinct","USUBJID",1,144,1,2,"_NULL_","_NULL_"
"Placebo","METABOLISM AND NUTRITION DISORDERS","DEHYDRATION","Y","count","quantity",1,145,1,1,"_NULL_","_NULL_"
"Placebo","METABOLISM AND NUTRITION DISORDERS","DEHYDRATION","Y","countdistinct","USUBJID",1,145,1,2,"_NULL_","_NULL_"
"Placebo","METABOLISM AND NUTRITION DISORDERS","DIABETES MELLITUS","Y","count","quantity",1,146,1,1,"_NULL_","_NULL_"
"Placebo","METABOLISM AND NUTRITION DISORDERS","DIABETES MELLITUS","Y","countdistinct","USUBJID",1,146,1,2,"_NULL_","_NULL_"
"Placebo","METABOLISM AND NUTRITION DISORDERS","FOOD CRAVING","Y","count","quantity",1,147,1,1,"_NULL_","_NULL_"
"Placebo","METABOLISM AND NUTRITION DISORDERS","FOOD CRAVING","Y","countdistinct","USUBJID",1,147,1,2,"_NULL_","_NULL_"
"Placebo","METABOLISM AND NUTRITION DISORDERS","HYPONATRAEMIA","Y","count","quantity",1,149,1,1,"_NULL_","_NULL_"
"Placebo","METABOLISM AND NUTRITION DISORDERS","HYPONATRAEMIA","Y","countdistinct","USUBJID",1,149,1,2,"_NULL_","_NULL_"
"Placebo","METABOLISM AND NUTRITION DISORDERS","INCREASED APPETITE","Y","count","quantity",2,150,1,1,"_NULL_","_NULL_"
"Placebo","METABOLISM AND NUTRITION DISORDERS","INCREASED APPETITE","Y","countdistinct","USUBJID",1,150,1,2,"_NULL_","_NULL_"
"Placebo","MUSCULOSKELETAL AND CONNECTIVE TISSUE DISORDERS","_ALL_","Y","count","quantity",8,151,1,1,"_NULL_","_NULL_"
"Placebo","MUSCULOSKELETAL AND CONNECTIVE TISSUE DISORDERS","_ALL_","Y","countdistinct","USUBJID",5,151,1,2,"_NULL_","_NULL_"
"Placebo","MUSCULOSKELETAL AND CONNECTIVE TISSUE DISORDERS","ARTHRALGIA","Y","count","quantity",1,152,1,1,"_NULL_","_NULL_"
"Placebo","MUSCULOSKELETAL AND CONNECTIVE TISSUE DISORDERS","ARTHRALGIA","Y","countdistinct","USUBJID",1,152,1,2,"_NULL_","_NULL_"
"Placebo","MUSCULOSKELETAL AND CONNECTIVE TISSUE DISORDERS","ARTHRITIS","Y","count","quantity",2,153,1,1,"_NULL_","_NULL_"
"Placebo","MUSCULOSKELETAL AND CONNECTIVE TISSUE DISORDERS","ARTHRITIS","Y","countdistinct","USUBJID",1,153,1,2,"_NULL_","_NULL_"
"Placebo","MUSCULOSKELETAL AND CONNECTIVE TISSUE DISORDERS","BACK PAIN","Y","count","quantity",2,154,1,1,"_NULL_","_NULL_"
"Placebo","MUSCULOSKELETAL AND CONNECTIVE TISSUE DISORDERS","BACK PAIN","Y","countdistinct","USUBJID",1,154,1,2,"_NULL_","_NULL_"
"Placebo","MUSCULOSKELETAL AND CONNECTIVE TISSUE DISORDERS","PAIN IN EXTREMITY","Y","count","quantity",1,159,1,1,"_NULL_","_NULL_"
"Placebo","MUSCULOSKELETAL AND CONNECTIVE TISSUE DISORDERS","PAIN IN EXTREMITY","Y","countdistinct","USUBJID",1,159,1,2,"_NULL_","_NULL_"
"Placebo","MUSCULOSKELETAL AND CONNECTIVE TISSUE DISORDERS","SHOULDER PAIN","Y","count","quantity",2,160,1,1,"_NULL_","_NULL_"
"Placebo","MUSCULOSKELETAL AND CONNECTIVE TISSUE DISORDERS","SHOULDER PAIN","Y","countdistinct","USUBJID",1,160,1,2,"_NULL_","_NULL_"
"Placebo","NERVOUS SYSTEM DISORDERS","_ALL_","Y","count","quantity",16,165,1,1,"_NULL_","_NULL_"
"Placebo","NERVOUS SYSTEM DISORDERS","_ALL_","Y","countdistinct","USUBJID",12,165,1,2,"_NULL_","_NULL_"
"Placebo","NERVOUS SYSTEM DISORDERS","DIZZINESS","Y","count","quantity",3,172,1,1,"_NULL_","_NULL_"
"Placebo","NERVOUS SYSTEM DISORDERS","DIZZINESS","Y","countdistinct","USUBJID",2,172,1,2,"_NULL_","_NULL_"
"Placebo","NERVOUS SYSTEM DISORDERS","HEADACHE","Y","count","quantity",8,173,1,1,"_NULL_","_NULL_"
"Placebo","NERVOUS SYSTEM DISORDERS","HEADACHE","Y","countdistinct","USUBJID",7,173,1,2,"_NULL_","_NULL_"
"Placebo","NERVOUS SYSTEM DISORDERS","PARKINSON'S DISEASE","Y","count","quantity",1,179,1,1,"_NULL_","_NULL_"
"Placebo","NERVOUS SYSTEM DISORDERS","PARKINSON'S DISEASE","Y","countdistinct","USUBJID",1,179,1,2,"_NULL_","_NULL_"
"Placebo","NERVOUS SYSTEM DISORDERS","PSYCHOMOTOR HYPERACTIVITY","Y","count","quantity",1,182,1,1,"_NULL_","_NULL_"
"Placebo","NERVOUS SYSTEM DISORDERS","PSYCHOMOTOR HYPERACTIVITY","Y","countdistinct","USUBJID",1,182,1,2,"_NULL_","_NULL_"
"Placebo","NERVOUS SYSTEM DISORDERS","SOMNOLENCE","Y","count","quantity",3,183,1,1,"_NULL_","_NULL_"
"Placebo","NERVOUS SYSTEM DISORDERS","SOMNOLENCE","Y","countdistinct","USUBJID",2,183,1,2,"_NULL_","_NULL_"
"Placebo","PSYCHIATRIC DISORDERS","_ALL_","Y","count","quantity",14,188,1,1,"_NULL_","_NULL_"
"Placebo","PSYCHIATRIC DISORDERS","_ALL_","Y","countdistinct","USUBJID",10,188,1,2,"_NULL_","_NULL_"
"Placebo","PSYCHIATRIC DISORDERS","AGITATION","Y","count","quantity",2,189,1,1,"_NULL_","_NULL_"
"Placebo","PSYCHIATRIC DISORDERS","AGITATION","Y","countdistinct","USUBJID",2,189,1,2,"_NULL_","_NULL_"
"Placebo","PSYCHIATRIC DISORDERS","ANXIETY","Y","count","quantity",2,190,1,1,"_NULL_","_NULL_"
"Placebo","PSYCHIATRIC DISORDERS","ANXIETY","Y","countdistinct","USUBJID",1,190,1,2,"_NULL_","_NULL_"
"Placebo","PSYCHIATRIC DISORDERS","COMPLETED SUICIDE","Y","count","quantity",1,191,1,1,"_NULL_","_NULL_"
"Placebo","PSYCHIATRIC DISORDERS","COMPLETED SUICIDE","Y","countdistinct","USUBJID",1,191,1,2,"_NULL_","_NULL_"
"Placebo","PSYCHIATRIC DISORDERS","CONFUSIONAL STATE","Y","count","quantity",2,192,1,1,"_NULL_","_NULL_"
"Placebo","PSYCHIATRIC DISORDERS","CONFUSIONAL STATE","Y","countdistinct","USUBJID",2,192,1,2,"_NULL_","_NULL_"
"Placebo","PSYCHIATRIC DISORDERS","DELUSION","Y","count","quantity",1,194,1,1,"_NULL_","_NULL_"
"Placebo","PSYCHIATRIC DISORDERS","DELUSION","Y","countdistinct","USUBJID",1,194,1,2,"_NULL_","_NULL_"
"Placebo","PSYCHIATRIC DISORDERS","DISORIENTATION","Y","count","quantity",1,196,1,1,"_NULL_","_NULL_"
"Placebo","PSYCHIATRIC DISORDERS","DISORIENTATION","Y","countdistinct","USUBJID",1,196,1,2,"_NULL_","_NULL_"
"Placebo","PSYCHIATRIC DISORDERS","INSOMNIA","Y","count","quantity",3,199,1,1,"_NULL_","_NULL_"
"Placebo","PSYCHIATRIC DISORDERS","INSOMNIA","Y","countdistinct","USUBJID",2,199,1,2,"_NULL_","_NULL_"
"Placebo","PSYCHIATRIC DISORDERS","IRRITABILITY","Y","count","quantity",2,200,1,1,"_NULL_","_NULL_"
"Placebo","PSYCHIATRIC DISORDERS","IRRITABILITY","Y","countdistinct","USUBJID",1,200,1,2,"_NULL_","_NULL_"
"Placebo","RENAL AND URINARY DISORDERS","_ALL_","Y","count","quantity",5,205,1,1,"_NULL_","_NULL_"
"Placebo","RENAL AND URINARY DISORDERS","_ALL_","Y","countdistinct","USUBJID",4,205,1,2,"_NULL_","_NULL_"
"Placebo","RENAL AND URINARY DISORDERS","DYSURIA","Y","count","quantity",1,207,1,1,"_NULL_","_NULL_"
"Placebo","RENAL AND URINARY DISORDERS","DYSURIA","Y","countdistinct","USUBJID",1,207,1,2,"_NULL_","_NULL_"
"Placebo","RENAL AND URINARY DISORDERS","MICTURITION URGENCY","Y","count","quantity",1,210,1,1,"_NULL_","_NULL_"
"Placebo","RENAL AND URINARY DISORDERS","MICTURITION URGENCY","Y","countdistinct","USUBJID",1,210,1,2,"_NULL_","_NULL_"
"Placebo","RENAL AND URINARY DISORDERS","NEPHROLITHIASIS","Y","count","quantity",1,211,1,1,"_NULL_","_NULL_"
"Placebo","RENAL AND URINARY DISORDERS","NEPHROLITHIASIS","Y","countdistinct","USUBJID",1,211,1,2,"_NULL_","_NULL_"
"Placebo","RENAL AND URINARY DISORDERS","POLLAKIURIA","Y","count","quantity",2,212,1,1,"_NULL_","_NULL_"
"Placebo","RENAL AND URINARY DISORDERS","POLLAKIURIA","Y","countdistinct","USUBJID",1,212,1,2,"_NULL_","_NULL_"
"Placebo","REPRODUCTIVE SYSTEM AND BREAST DISORDERS","_ALL_","Y","count","quantity",4,213,1,1,"_NULL_","_NULL_"
"Placebo","REPRODUCTIVE SYSTEM AND BREAST DISORDERS","_ALL_","Y","countdistinct","USUBJID",2,213,1,2,"_NULL_","_NULL_"
"Placebo","REPRODUCTIVE SYSTEM AND BREAST DISORDERS","BENIGN PROSTATIC HYPERPLASIA","Y","count","quantity",2,214,1,1,"_NULL_","_NULL_"
"Placebo","REPRODUCTIVE SYSTEM AND BREAST DISORDERS","BENIGN PROSTATIC HYPERPLASIA","Y","countdistinct","USUBJID",1,214,1,2,"_NULL_","_NULL_"
"Placebo","REPRODUCTIVE SYSTEM AND BREAST DISORDERS","PELVIC PAIN","Y","count","quantity",2,215,1,1,"_NULL_","_NULL_"
"Placebo","REPRODUCTIVE SYSTEM AND BREAST DISORDERS","PELVIC PAIN","Y","countdistinct","USUBJID",1,215,1,2,"_NULL_","_NULL_"
"Placebo","RESPIRATORY, THORACIC AND MEDIASTINAL DISORDERS","_ALL_","Y","count","quantity",15,216,1,1,"_NULL_","_NULL_"
"Placebo","RESPIRATORY, THORACIC AND MEDIASTINAL DISORDERS","_ALL_","Y","countdistinct","USUBJID",10,216,1,2,"_NULL_","_NULL_"
"Placebo","RESPIRATORY, THORACIC AND MEDIASTINAL DISORDERS","COUGH","Y","count","quantity",4,218,1,1,"_NULL_","_NULL_"
"Placebo","RESPIRATORY, THORACIC AND MEDIASTINAL DISORDERS","COUGH","Y","countdistinct","USUBJID",3,218,1,2,"_NULL_","_NULL_"
"Placebo","RESPIRATORY, THORACIC AND MEDIASTINAL DISORDERS","DYSPNOEA","Y","count","quantity",1,220,1,1,"_NULL_","_NULL_"
"Placebo","RESPIRATORY, THORACIC AND MEDIASTINAL DISORDERS","DYSPNOEA","Y","countdistinct","USUBJID",1,220,1,2,"_NULL_","_NULL_"
"Placebo","RESPIRATORY, THORACIC AND MEDIASTINAL DISORDERS","EMPHYSEMA","Y","count","quantity",1,221,1,1,"_NULL_","_NULL_"
"Placebo","RESPIRATORY, THORACIC AND MEDIASTINAL DISORDERS","EMPHYSEMA","Y","countdistinct","USUBJID",1,221,1,2,"_NULL_","_NULL_"
"Placebo","RESPIRATORY, THORACIC AND MEDIASTINAL DISORDERS","HAEMOPTYSIS","Y","count","quantity",2,223,1,1,"_NULL_","_NULL_"
"Placebo","RESPIRATORY, THORACIC AND MEDIASTINAL DISORDERS","HAEMOPTYSIS","Y","countdistinct","USUBJID",1,223,1,2,"_NULL_","_NULL_"
"Placebo","RESPIRATORY, THORACIC AND MEDIASTINAL DISORDERS","NASAL CONGESTION","Y","count","quantity",3,224,1,1,"_NULL_","_NULL_"
"Placebo","RESPIRATORY, THORACIC AND MEDIASTINAL DISORDERS","NASAL CONGESTION","Y","countdistinct","USUBJID",3,224,1,2,"_NULL_","_NULL_"
"Placebo","RESPIRATORY, THORACIC AND MEDIASTINAL DISORDERS","POSTNASAL DRIP","Y","count","quantity",2,227,1,1,"_NULL_","_NULL_"
"Placebo","RESPIRATORY, THORACIC AND MEDIASTINAL DISORDERS","POSTNASAL DRIP","Y","countdistinct","USUBJID",1,227,1,2,"_NULL_","_NULL_"
"Placebo","RESPIRATORY, THORACIC AND MEDIASTINAL DISORDERS","RALES","Y","count","quantity",2,229,1,1,"_NULL_","_NULL_"
"Placebo","RESPIRATORY, THORACIC AND MEDIASTINAL DISORDERS","RALES","Y","countdistinct","USUBJID",1,229,1,2,"_NULL_","_NULL_"
"Placebo","SKIN AND SUBCUTANEOUS TISSUE DISORDERS","_ALL_","Y","count","quantity",47,232,1,1,"_NULL_","_NULL_"
"Placebo","SKIN AND SUBCUTANEOUS TISSUE DISORDERS","_ALL_","Y","countdistinct","USUBJID",21,232,1,2,"_NULL_","_NULL_"
"Placebo","SKIN AND SUBCUTANEOUS TISSUE DISORDERS","ALOPECIA","Y","count","quantity",1,234,1,1,"_NULL_","_NULL_"
"Placebo","SKIN AND SUBCUTANEOUS TISSUE DISORDERS","ALOPECIA","Y","countdistinct","USUBJID",1,234,1,2,"_NULL_","_NULL_"
"Placebo","SKIN AND SUBCUTANEOUS TISSUE DISORDERS","COLD SWEAT","Y","count","quantity",3,236,1,1,"_NULL_","_NULL_"
"Placebo","SKIN AND SUBCUTANEOUS TISSUE DISORDERS","COLD SWEAT","Y","countdistinct","USUBJID",1,236,1,2,"_NULL_","_NULL_"
"Placebo","SKIN AND SUBCUTANEOUS TISSUE DISORDERS","DERMATITIS ATOPIC","Y","count","quantity",1,237,1,1,"_NULL_","_NULL_"
"Placebo","SKIN AND SUBCUTANEOUS TISSUE DISORDERS","DERMATITIS ATOPIC","Y","countdistinct","USUBJID",1,237,1,2,"_NULL_","_NULL_"
"Placebo","SKIN AND SUBCUTANEOUS TISSUE DISORDERS","DRUG ERUPTION","Y","count","quantity",1,239,1,1,"_NULL_","_NULL_"
"Placebo","SKIN AND SUBCUTANEOUS TISSUE DISORDERS","DRUG ERUPTION","Y","countdistinct","USUBJID",1,239,1,2,"_NULL_","_NULL_"
"Placebo","SKIN AND SUBCUTANEOUS TISSUE DISORDERS","ERYTHEMA","Y","count","quantity",13,240,1,1,"_NULL_","_NULL_"
"Placebo","SKIN AND SUBCUTANEOUS TISSUE DISORDERS","ERYTHEMA","Y","countdistinct","USUBJID",9,240,1,2,"_NULL_","_NULL_"
"Placebo","SKIN AND SUBCUTANEOUS TISSUE DISORDERS","HYPERHIDROSIS","Y","count","quantity",2,241,1,1,"_NULL_","_NULL_"
"Placebo","SKIN AND SUBCUTANEOUS TISSUE DISORDERS","HYPERHIDROSIS","Y","countdistinct","USUBJID",2,241,1,2,"_NULL_","_NULL_"
"Placebo","SKIN AND SUBCUTANEOUS TISSUE DISORDERS","PRURITUS","Y","count","quantity",11,242,1,1,"_NULL_","_NULL_"
"Placebo","SKIN AND SUBCUTANEOUS TISSUE DISORDERS","PRURITUS","Y","countdistinct","USUBJID",8,242,1,2,"_NULL_","_NULL_"
"Placebo","SKIN AND SUBCUTANEOUS TISSUE DISORDERS","RASH","Y","count","quantity",9,244,1,1,"_NULL_","_NULL_"
"Placebo","SKIN AND SUBCUTANEOUS TISSUE DISORDERS","RASH","Y","countdistinct","USUBJID",5,244,1,2,"_NULL_","_NULL_"
"Placebo","SKIN AND SUBCUTANEOUS TISSUE DISORDERS","SKIN IRRITATION","Y","count","quantity",4,250,1,1,"_NULL_","_NULL_"
"Placebo","SKIN AND SUBCUTANEOUS TISSUE DISORDERS","SKIN IRRITATION","Y","countdistinct","USUBJID",3,250,1,2,"_NULL_","_NULL_"
"Placebo","SKIN AND SUBCUTANEOUS TISSUE DISORDERS","SKIN ULCER","Y","count","quantity",2,252,1,1,"_NULL_","_NULL_"
"Placebo","SKIN AND SUBCUTANEOUS TISSUE DISORDERS","SKIN ULCER","Y","countdistinct","USUBJID",1,252,1,2,"_NULL_","_NULL_"
"Placebo","SURGICAL AND MEDICAL PROCEDURES","_ALL_","Y","count","quantity",2,256,1,1,"_NULL_","_NULL_"
"Placebo","SURGICAL AND MEDICAL PROCEDURES","_ALL_","Y","countdistinct","USUBJID",2,256,1,2,"_NULL_","_NULL_"
"Placebo","SURGICAL AND MEDICAL PROCEDURES","CATARACT OPERATION","Y","count","quantity",1,258,1,1,"_NULL_","_NULL_"
"Placebo","SURGICAL AND MEDICAL PROCEDURES","CATARACT OPERATION","Y","countdistinct","USUBJID",1,258,1,2,"_NULL_","_NULL_"
"Placebo","SURGICAL AND MEDICAL PROCEDURES","EYE LASER SURGERY","Y","count","quantity",1,259,1,1,"_NULL_","_NULL_"
"Placebo","SURGICAL AND MEDICAL PROCEDURES","EYE LASER SURGERY","Y","countdistinct","USUBJID",1,259,1,2,"_NULL_","_NULL_"
"Placebo","VASCULAR DISORDERS","_ALL_","Y","count","quantity",7,261,1,1,"_NULL_","_NULL_"
"Placebo","VASCULAR DISORDERS","_ALL_","Y","countdistinct","USUBJID",3,261,1,2,"_NULL_","_NULL_"
"Placebo","VASCULAR DISORDERS","HYPERTENSION","Y","count","quantity",2,263,1,1,"_NULL_","_NULL_"
"Placebo","VASCULAR DISORDERS","HYPERTENSION","Y","countdistinct","USUBJID",1,263,1,2,"_NULL_","_NULL_"
"Placebo","VASCULAR DISORDERS","HYPOTENSION","Y","count","quantity",3,264,1,1,"_NULL_","_NULL_"
"Placebo","VASCULAR DISORDERS","HYPOTENSION","Y","countdistinct","USUBJID",2,264,1,2,"_NULL_","_NULL_"
"Placebo","VASCULAR DISORDERS","ORTHOSTATIC HYPOTENSION","Y","count","quantity",2,265,1,1,"_NULL_","_NULL_"
"Placebo","VASCULAR DISORDERS","ORTHOSTATIC HYPOTENSION","Y","countdistinct","USUBJID",1,265,1,2,"_NULL_","_NULL_"
"Xanomeline High Dose","_ALL_","_ALL_","Y","count","quantity",455,1,2,1,"_NULL_","_NULL_"
"Xanomeline High Dose","_ALL_","_ALL_","Y","countdistinct","USUBJID",79,1,2,2,"_NULL_","_NULL_"
"Xanomeline High Dose","CARDIAC DISORDERS","_ALL_","Y","count","quantity",34,2,2,1,"_NULL_","_NULL_"
"Xanomeline High Dose","CARDIAC DISORDERS","_ALL_","Y","countdistinct","USUBJID",18,2,2,2,"_NULL_","_NULL_"
"Xanomeline High Dose","CARDIAC DISORDERS","ATRIAL FIBRILLATION","Y","count","quantity",5,3,2,1,"_NULL_","_NULL_"
"Xanomeline High Dose","CARDIAC DISORDERS","ATRIAL FIBRILLATION","Y","countdistinct","USUBJID",3,3,2,2,"_NULL_","_NULL_"
"Xanomeline High Dose","CARDIAC DISORDERS","ATRIAL FLUTTER","Y","count","quantity",2,4,2,1,"_NULL_","_NULL_"
"Xanomeline High Dose","CARDIAC DISORDERS","ATRIAL FLUTTER","Y","countdistinct","USUBJID",1,4,2,2,"_NULL_","_NULL_"
"Xanomeline High Dose","CARDIAC DISORDERS","ATRIOVENTRICULAR BLOCK SECOND DEGREE","Y","count","quantity",4,7,2,1,"_NULL_","_NULL_"
"Xanomeline High Dose","CARDIAC DISORDERS","ATRIOVENTRICULAR BLOCK SECOND DEGREE","Y","countdistinct","USUBJID",3,7,2,2,"_NULL_","_NULL_"
"Xanomeline High Dose","CARDIAC DISORDERS","CARDIAC DISORDER","Y","count","quantity",1,11,2,1,"_NULL_","_NULL_"
"Xanomeline High Dose","CARDIAC DISORDERS","CARDIAC DISORDER","Y","countdistinct","USUBJID",1,11,2,2,"_NULL_","_NULL_"
"Xanomeline High Dose","CARDIAC DISORDERS","MYOCARDIAL INFARCTION","Y","count","quantity",8,13,2,1,"_NULL_","_NULL_"
"Xanomeline High Dose","CARDIAC DISORDERS","MYOCARDIAL INFARCTION","Y","countdistinct","USUBJID",4,13,2,2,"_NULL_","_NULL_"
"Xanomeline High Dose","CARDIAC DISORDERS","SINUS BRADYCARDIA","Y","count","quantity",12,16,2,1,"_NULL_","_NULL_"
"Xanomeline High Dose","CARDIAC DISORDERS","SINUS BRADYCARDIA","Y","countdistinct","USUBJID",8,16,2,2,"_NULL_","_NULL_"
"Xanomeline High Dose","CARDIAC DISORDERS","SUPRAVENTRICULAR EXTRASYSTOLES","Y","count","quantity",1,17,2,1,"_NULL_","_NULL_"
"Xanomeline High Dose","CARDIAC DISORDERS","SUPRAVENTRICULAR EXTRASYSTOLES","Y","countdistinct","USUBJID",1,17,2,2,"_NULL_","_NULL_"
"Xanomeline High Dose","CARDIAC DISORDERS","VENTRICULAR EXTRASYSTOLES","Y","count","quantity",1,20,2,1,"_NULL_","_NULL_"
"Xanomeline High Dose","CARDIAC DISORDERS","VENTRICULAR EXTRASYSTOLES","Y","countdistinct","USUBJID",1,20,2,2,"_NULL_","_NULL_"
"Xanomeline High Dose","CONGENITAL, FAMILIAL AND GENETIC DISORDERS","_ALL_","Y","count","quantity",2,23,2,1,"_NULL_","_NULL_"
"Xanomeline High Dose","CONGENITAL, FAMILIAL AND GENETIC DISORDERS","_ALL_","Y","countdistinct","USUBJID",2,23,2,2,"_NULL_","_NULL_"
"Xanomeline High Dose","CONGENITAL, FAMILIAL AND GENETIC DISORDERS","VENTRICULAR SEPTAL DEFECT","Y","count","quantity",2,24,2,1,"_NULL_","_NULL_"
"Xanomeline High Dose","CONGENITAL, FAMILIAL AND GENETIC DISORDERS","VENTRICULAR SEPTAL DEFECT","Y","countdistinct","USUBJID",2,24,2,2,"_NULL_","_NULL_"
"Xanomeline High Dose","EAR AND LABYRINTH DISORDERS","_ALL_","Y","count","quantity",1,25,2,1,"_NULL_","_NULL_"
"Xanomeline High Dose","EAR AND LABYRINTH DISORDERS","_ALL_","Y","countdistinct","USUBJID",1,25,2,2,"_NULL_","_NULL_"
"Xanomeline High Dose","EAR AND LABYRINTH DISORDERS","VERTIGO","Y","count","quantity",1,29,2,1,"_NULL_","_NULL_"
"Xanomeline High Dose","EAR AND LABYRINTH DISORDERS","VERTIGO","Y","countdistinct","USUBJID",1,29,2,2,"_NULL_","_NULL_"
"Xanomeline High Dose","EYE DISORDERS","_ALL_","Y","count","quantity",2,30,2,1,"_NULL_","_NULL_"
"Xanomeline High Dose","EYE DISORDERS","_ALL_","Y","countdistinct","USUBJID",1,30,2,2,"_NULL_","_NULL_"
"Xanomeline High Dose","EYE DISORDERS","VISION BLURRED","Y","count","quantity",2,37,2,1,"_NULL_","_NULL_"
"Xanomeline High Dose","EYE DISORDERS","VISION BLURRED","Y","countdistinct","USUBJID",1,37,2,2,"_NULL_","_NULL_"
"Xanomeline High Dose","GASTROINTESTINAL DISORDERS","_ALL_","Y","count","quantity",37,38,2,1,"_NULL_","_NULL_"
"Xanomeline High Dose","GASTROINTESTINAL DISORDERS","_ALL_","Y","countdistinct","USUBJID",21,38,2,2,"_NULL_","_NULL_"
"Xanomeline High Dose","GASTROINTESTINAL DISORDERS","ABDOMINAL DISCOMFORT","Y","count","quantity",1,39,2,1,"_NULL_","_NULL_"
"Xanomeline High Dose","GASTROINTESTINAL DISORDERS","ABDOMINAL DISCOMFORT","Y","countdistinct","USUBJID",1,39,2,2,"_NULL_","_NULL_"
"Xanomeline High Dose","GASTROINTESTINAL DISORDERS","ABDOMINAL PAIN","Y","count","quantity",2,40,2,1,"_NULL_","_NULL_"
"Xanomeline High Dose","GASTROINTESTINAL DISORDERS","ABDOMINAL PAIN","Y","countdistinct","USUBJID",1,40,2,2,"_NULL_","_NULL_"
"Xanomeline High Dose","GASTROINTESTINAL DISORDERS","DIARRHOEA","Y","count","quantity",4,42,2,1,"_NULL_","_NULL_"
"Xanomeline High Dose","GASTROINTESTINAL DISORDERS","DIARRHOEA","Y","countdistinct","USUBJID",4,42,2,2,"_NULL_","_NULL_"
"Xanomeline High Dose","GASTROINTESTINAL DISORDERS","DYSPEPSIA","Y","count","quantity",1,43,2,1,"_NULL_","_NULL_"
"Xanomeline High Dose","GASTROINTESTINAL DISORDERS","DYSPEPSIA","Y","countdistinct","USUBJID",1,43,2,2,"_NULL_","_NULL_"
"Xanomeline High Dose","GASTROINTESTINAL DISORDERS","GASTROINTESTINAL HAEMORRHAGE","Y","count","quantity",1,46,2,1,"_NULL_","_NULL_"
"Xanomeline High Dose","GASTROINTESTINAL DISORDERS","GASTROINTESTINAL HAEMORRHAGE","Y","countdistinct","USUBJID",1,46,2,2,"_NULL_","_NULL_"
"Xanomeline High Dose","GASTROINTESTINAL DISORDERS","NAUSEA","Y","count","quantity",13,50,2,1,"_NULL_","_NULL_"
"Xanomeline High Dose","GASTROINTESTINAL DISORDERS","NAUSEA","Y","countdistinct","USUBJID",6,50,2,2,"_NULL_","_NULL_"
"Xanomeline High Dose","GASTROINTESTINAL DISORDERS","SALIVARY HYPERSECRETION","Y","count","quantity",5,52,2,1,"_NULL_","_NULL_"
"Xanomeline High Dose","GASTROINTESTINAL DISORDERS","SALIVARY HYPERSECRETION","Y","countdistinct","USUBJID",4,52,2,2,"_NULL_","_NULL_"
"Xanomeline High Dose","GASTROINTESTINAL DISORDERS","STOMACH DISCOMFORT","Y","count","quantity",1,53,2,1,"_NULL_","_NULL_"
"Xanomeline High Dose","GASTROINTESTINAL DISORDERS","STOMACH DISCOMFORT","Y","countdistinct","USUBJID",1,53,2,2,"_NULL_","_NULL_"
"Xanomeline High Dose","GASTROINTESTINAL DISORDERS","VOMITING","Y","count","quantity",9,54,2,1,"_NULL_","_NULL_"
"Xanomeline High Dose","GASTROINTESTINAL DISORDERS","VOMITING","Y","countdistinct","USUBJID",7,54,2,2,"_NULL_","_NULL_"
"Xanomeline High Dose","GENERAL DISORDERS AND ADMINISTRATION SITE CONDITIONS","_ALL_","Y","count","quantity",124,55,2,1,"_NULL_","_NULL_"
"Xanomeline High Dose","GENERAL DISORDERS AND ADMINISTRATION SITE CONDITIONS","_ALL_","Y","countdistinct","USUBJID",40,55,2,2,"_NULL_","_NULL_"
"Xanomeline High Dose","GENERAL DISORDERS AND ADMINISTRATION SITE CONDITIONS","APPLICATION SITE DERMATITIS","Y","count","quantity",12,57,2,1,"_NULL_","_NULL_"
"Xanomeline High Dose","GENERAL DISORDERS AND ADMINISTRATION SITE CONDITIONS","APPLICATION SITE DERMATITIS","Y","countdistinct","USUBJID",7,57,2,2,"_NULL_","_NULL_"
"Xanomeline High Dose","GENERAL DISORDERS AND ADMINISTRATION SITE CONDITIONS","APPLICATION SITE DISCHARGE","Y","count","quantity",1,59,2,1,"_NULL_","_NULL_"
"Xanomeline High Dose","GENERAL DISORDERS AND ADMINISTRATION SITE CONDITIONS","APPLICATION SITE DISCHARGE","Y","countdistinct","USUBJID",1,59,2,2,"_NULL_","_NULL_"
"Xanomeline High Dose","GENERAL DISORDERS AND ADMINISTRATION SITE CONDITIONS","APPLICATION SITE ERYTHEMA","Y","count","quantity",23,61,2,1,"_NULL_","_NULL_"
"Xanomeline High Dose","GENERAL DISORDERS AND ADMINISTRATION SITE CONDITIONS","APPLICATION SITE ERYTHEMA","Y","countdistinct","USUBJID",15,61,2,2,"_NULL_","_NULL_"
"Xanomeline High Dose","GENERAL DISORDERS AND ADMINISTRATION SITE CONDITIONS","APPLICATION SITE IRRITATION","Y","count","quantity",16,63,2,1,"_NULL_","_NULL_"
"Xanomeline High Dose","GENERAL DISORDERS AND ADMINISTRATION SITE CONDITIONS","APPLICATION SITE IRRITATION","Y","countdistinct","USUBJID",9,63,2,2,"_NULL_","_NULL_"
"Xanomeline High Dose","GENERAL DISORDERS AND ADMINISTRATION SITE CONDITIONS","APPLICATION SITE PAIN","Y","count","quantity",2,64,2,1,"_NULL_","_NULL_"
"Xanomeline High Dose","GENERAL DISORDERS AND ADMINISTRATION SITE CONDITIONS","APPLICATION SITE PAIN","Y","countdistinct","USUBJID",2,64,2,2,"_NULL_","_NULL_"
"Xanomeline High Dose","GENERAL DISORDERS AND ADMINISTRATION SITE CONDITIONS","APPLICATION SITE PERSPIRATION","Y","count","quantity",3,65,2,1,"_NULL_","_NULL_"
"Xanomeline High Dose","GENERAL DISORDERS AND ADMINISTRATION SITE CONDITIONS","APPLICATION SITE PERSPIRATION","Y","countdistinct","USUBJID",2,65,2,2,"_NULL_","_NULL_"
"Xanomeline High Dose","GENERAL DISORDERS AND ADMINISTRATION SITE CONDITIONS","APPLICATION SITE PRURITUS","Y","count","quantity",35,66,2,1,"_NULL_","_NULL_"
"Xanomeline High Dose","GENERAL DISORDERS AND ADMINISTRATION SITE CONDITIONS","APPLICATION SITE PRURITUS","Y","countdistinct","USUBJID",22,66,2,2,"_NULL_","_NULL_"
"Xanomeline High Dose","GENERAL DISORDERS AND ADMINISTRATION SITE CONDITIONS","APPLICATION SITE REACTION","Y","count","quantity",1,67,2,1,"_NULL_","_NULL_"
"Xanomeline High Dose","GENERAL DISORDERS AND ADMINISTRATION SITE CONDITIONS","APPLICATION SITE REACTION","Y","countdistinct","USUBJID",1,67,2,2,"_NULL_","_NULL_"
"Xanomeline High Dose","GENERAL DISORDERS AND ADMINISTRATION SITE CONDITIONS","APPLICATION SITE SWELLING","Y","count","quantity",3,68,2,1,"_NULL_","_NULL_"
"Xanomeline High Dose","GENERAL DISORDERS AND ADMINISTRATION SITE CONDITIONS","APPLICATION SITE SWELLING","Y","countdistinct","USUBJID",2,68,2,2,"_NULL_","_NULL_"
"Xanomeline High Dose","GENERAL DISORDERS AND ADMINISTRATION SITE CONDITIONS","APPLICATION SITE URTICARIA","Y","count","quantity",1,69,2,1,"_NULL_","_NULL_"
"Xanomeline High Dose","GENERAL DISORDERS AND ADMINISTRATION SITE CONDITIONS","APPLICATION SITE URTICARIA","Y","countdistinct","USUBJID",1,69,2,2,"_NULL_","_NULL_"
"Xanomeline High Dose","GENERAL DISORDERS AND ADMINISTRATION SITE CONDITIONS","APPLICATION SITE VESICLES","Y","count","quantity",6,70,2,1,"_NULL_","_NULL_"
"Xanomeline High Dose","GENERAL DISORDERS AND ADMINISTRATION SITE CONDITIONS","APPLICATION SITE VESICLES","Y","countdistinct","USUBJID",6,70,2,2,"_NULL_","_NULL_"
"Xanomeline High Dose","GENERAL DISORDERS AND ADMINISTRATION SITE CONDITIONS","ASTHENIA","Y","count","quantity",1,72,2,1,"_NULL_","_NULL_"
"Xanomeline High Dose","GENERAL DISORDERS AND ADMINISTRATION SITE CONDITIONS","ASTHENIA","Y","countdistinct","USUBJID",1,72,2,2,"_NULL_","_NULL_"
"Xanomeline High Dose","GENERAL DISORDERS AND ADMINISTRATION SITE CONDITIONS","CHEST DISCOMFORT","Y","count","quantity",2,73,2,1,"_NULL_","_NULL_"
"Xanomeline High Dose","GENERAL DISORDERS AND ADMINISTRATION SITE CONDITIONS","CHEST DISCOMFORT","Y","countdistinct","USUBJID",2,73,2,2,"_NULL_","_NULL_"
"Xanomeline High Dose","GENERAL DISORDERS AND ADMINISTRATION SITE CONDITIONS","CHEST PAIN","Y","count","quantity",2,74,2,1,"_NULL_","_NULL_"
"Xanomeline High Dose","GENERAL DISORDERS AND ADMINISTRATION SITE CONDITIONS","CHEST PAIN","Y","countdistinct","USUBJID",2,74,2,2,"_NULL_","_NULL_"
"Xanomeline High Dose","GENERAL DISORDERS AND ADMINISTRATION SITE CONDITIONS","CHILLS","Y","count","quantity",1,75,2,1,"_NULL_","_NULL_"
"Xanomeline High Dose","GENERAL DISORDERS AND ADMINISTRATION SITE CONDITIONS","CHILLS","Y","countdistinct","USUBJID",1,75,2,2,"_NULL_","_NULL_"
"Xanomeline High Dose","GENERAL DISORDERS AND ADMINISTRATION SITE CONDITIONS","FATIGUE","Y","count","quantity",5,77,2,1,"_NULL_","_NULL_"
"Xanomeline High Dose","GENERAL DISORDERS AND ADMINISTRATION SITE CONDITIONS","FATIGUE","Y","countdistinct","USUBJID",5,77,2,2,"_NULL_","_NULL_"
"Xanomeline High Dose","GENERAL DISORDERS AND ADMINISTRATION SITE CONDITIONS","FEELING ABNORMAL","Y","count","quantity",1,78,2,1,"_NULL_","_NULL_"
"Xanomeline High Dose","GENERAL DISORDERS AND ADMINISTRATION SITE CONDITIONS","FEELING ABNORMAL","Y","countdistinct","USUBJID",1,78,2,2,"_NULL_","_NULL_"
"Xanomeline High Dose","GENERAL DISORDERS AND ADMINISTRATION SITE CONDITIONS","FEELING COLD","Y","count","quantity",1,79,2,1,"_NULL_","_NULL_"
"Xanomeline High Dose","GENERAL DISORDERS AND ADMINISTRATION SITE CONDITIONS","FEELING COLD","Y","countdistinct","USUBJID",1,79,2,2,"_NULL_","_NULL_"
"Xanomeline High Dose","GENERAL DISORDERS AND ADMINISTRATION SITE CONDITIONS","MALAISE","Y","count","quantity",3,81,2,1,"_NULL_","_NULL_"
"Xanomeline High Dose","GENERAL DISORDERS AND ADMINISTRATION SITE CONDITIONS","MALAISE","Y","countdistinct","USUBJID",2,81,2,2,"_NULL_","_NULL_"
"Xanomeline High Dose","GENERAL DISORDERS AND ADMINISTRATION SITE CONDITIONS","OEDEMA PERIPHERAL","Y","count","quantity",3,83,2,1,"_NULL_","_NULL_"
"Xanomeline High Dose","GENERAL DISORDERS AND ADMINISTRATION SITE CONDITIONS","OEDEMA PERIPHERAL","Y","countdistinct","USUBJID",2,83,2,2,"_NULL_","_NULL_"
"Xanomeline High Dose","GENERAL DISORDERS AND ADMINISTRATION SITE CONDITIONS","PAIN","Y","count","quantity",1,84,2,1,"_NULL_","_NULL_"
"Xanomeline High Dose","GENERAL DISORDERS AND ADMINISTRATION SITE CONDITIONS","PAIN","Y","countdistinct","USUBJID",1,84,2,2,"_NULL_","_NULL_"
"Xanomeline High Dose","GENERAL DISORDERS AND ADMINISTRATION SITE CONDITIONS","PYREXIA","Y","count","quantity",1,85,2,1,"_NULL_","_NULL_"
"Xanomeline High Dose","GENERAL DISORDERS AND ADMINISTRATION SITE CONDITIONS","PYREXIA","Y","countdistinct","USUBJID",1,85,2,2,"_NULL_","_NULL_"
"Xanomeline High Dose","IMMUNE SYSTEM DISORDERS","_ALL_","Y","count","quantity",1,92,2,1,"_NULL_","_NULL_"
"Xanomeline High Dose","IMMUNE SYSTEM DISORDERS","_ALL_","Y","countdistinct","USUBJID",1,92,2,2,"_NULL_","_NULL_"
"Xanomeline High Dose","IMMUNE SYSTEM DISORDERS","SEASONAL ALLERGY","Y","count","quantity",1,94,2,1,"_NULL_","_NULL_"
"Xanomeline High Dose","IMMUNE SYSTEM DISORDERS","SEASONAL ALLERGY","Y","countdistinct","USUBJID",1,94,2,2,"_NULL_","_NULL_"
"Xanomeline High Dose","INFECTIONS AND INFESTATIONS","_ALL_","Y","count","quantity",20,95,2,1,"_NULL_","_NULL_"
"Xanomeline High Dose","INFECTIONS AND INFESTATIONS","_ALL_","Y","countdistinct","USUBJID",13,95,2,2,"_NULL_","_NULL_"
"Xanomeline High Dose","INFECTIONS AND INFESTATIONS","CYSTITIS","Y","count","quantity",1,99,2,1,"_NULL_","_NULL_"
"Xanomeline High Dose","INFECTIONS AND INFESTATIONS","CYSTITIS","Y","countdistinct","USUBJID",1,99,2,2,"_NULL_","_NULL_"
"Xanomeline High Dose","INFECTIONS AND INFESTATIONS","HORDEOLUM","Y","count","quantity",1,102,2,1,"_NULL_","_NULL_"
"Xanomeline High Dose","INFECTIONS AND INFESTATIONS","HORDEOLUM","Y","countdistinct","USUBJID",1,102,2,2,"_NULL_","_NULL_"
"Xanomeline High Dose","INFECTIONS AND INFESTATIONS","INFLUENZA","Y","count","quantity",1,103,2,1,"_NULL_","_NULL_"
"Xanomeline High Dose","INFECTIONS AND INFESTATIONS","INFLUENZA","Y","countdistinct","USUBJID",1,103,2,2,"_NULL_","_NULL_"
"Xanomeline High Dose","INFECTIONS AND INFESTATIONS","LOWER RESPIRATORY TRACT INFECTION","Y","count","quantity",2,105,2,1,"_NULL_","_NULL_"
"Xanomeline High Dose","INFECTIONS AND INFESTATIONS","LOWER RESPIRATORY TRACT INFECTION","Y","countdistinct","USUBJID",1,105,2,2,"_NULL_","_NULL_"
"Xanomeline High Dose","INFECTIONS AND INFESTATIONS","NASOPHARYNGITIS","Y","count","quantity",8,106,2,1,"_NULL_","_NULL_"
"Xanomeline High Dose","INFECTIONS AND INFESTATIONS","NASOPHARYNGITIS","Y","countdistinct","USUBJID",6,106,2,2,"_NULL_","_NULL_"
"Xanomeline High Dose","INFECTIONS AND INFESTATIONS","RHINITIS","Y","count","quantity",1,109,2,1,"_NULL_","_NULL_"
"Xanomeline High Dose","INFECTIONS AND INFESTATIONS","RHINITIS","Y","countdistinct","USUBJID",1,109,2,2,"_NULL_","_NULL_"
"Xanomeline High Dose","INFECTIONS AND INFESTATIONS","UPPER RESPIRATORY TRACT INFECTION","Y","count","quantity",5,110,2,1,"_NULL_","_NULL_"
"Xanomeline High Dose","INFECTIONS AND INFESTATIONS","UPPER RESPIRATORY TRACT INFECTION","Y","countdistinct","USUBJID",3,110,2,2,"_NULL_","_NULL_"
"Xanomeline High Dose","INFECTIONS AND INFESTATIONS","URINARY TRACT INFECTION","Y","count","quantity",1,111,2,1,"_NULL_","_NULL_"
"Xanomeline High Dose","INFECTIONS AND INFESTATIONS","URINARY TRACT INFECTION","Y","countdistinct","USUBJID",1,111,2,2,"_NULL_","_NULL_"
"Xanomeline High Dose","INJURY, POISONING AND PROCEDURAL COMPLICATIONS","_ALL_","Y","count","quantity",8,114,2,1,"_NULL_","_NULL_"
"Xanomeline High Dose","INJURY, POISONING AND PROCEDURAL COMPLICATIONS","_ALL_","Y","countdistinct","USUBJID",5,114,2,2,"_NULL_","_NULL_"
"Xanomeline High Dose","INJURY, POISONING AND PROCEDURAL COMPLICATIONS","CONTUSION","Y","count","quantity",3,115,2,1,"_NULL_","_NULL_"
"Xanomeline High Dose","INJURY, POISONING AND PROCEDURAL COMPLICATIONS","CONTUSION","Y","countdistinct","USUBJID",2,115,2,2,"_NULL_","_NULL_"
"Xanomeline High Dose","INJURY, POISONING AND PROCEDURAL COMPLICATIONS","EXCORIATION","Y","count","quantity",1,116,2,1,"_NULL_","_NULL_"
"Xanomeline High Dose","INJURY, POISONING AND PROCEDURAL COMPLICATIONS","EXCORIATION","Y","countdistinct","USUBJID",1,116,2,2,"_NULL_","_NULL_"
"Xanomeline High Dose","INJURY, POISONING AND PROCEDURAL COMPLICATIONS","FACIAL BONES FRACTURE","Y","count","quantity",1,117,2,1,"_NULL_","_NULL_"
"Xanomeline High Dose","INJURY, POISONING AND PROCEDURAL COMPLICATIONS","FACIAL BONES FRACTURE","Y","countdistinct","USUBJID",1,117,2,2,"_NULL_","_NULL_"
"Xanomeline High Dose","INJURY, POISONING AND PROCEDURAL COMPLICATIONS","FALL","Y","count","quantity",1,118,2,1,"_NULL_","_NULL_"
"Xanomeline High Dose","INJURY, POISONING AND PROCEDURAL COMPLICATIONS","FALL","Y","countdistinct","USUBJID",1,118,2,2,"_NULL_","_NULL_"
"Xanomeline High Dose","INJURY, POISONING AND PROCEDURAL COMPLICATIONS","HIP FRACTURE","Y","count","quantity",2,119,2,1,"_NULL_","_NULL_"
"Xanomeline High Dose","INJURY, POISONING AND PROCEDURAL COMPLICATIONS","HIP FRACTURE","Y","countdistinct","USUBJID",2,119,2,2,"_NULL_","_NULL_"
"Xanomeline High Dose","INVESTIGATIONS","_ALL_","Y","count","quantity",8,123,2,1,"_NULL_","_NULL_"
"Xanomeline High Dose","INVESTIGATIONS","_ALL_","Y","countdistinct","USUBJID",6,123,2,2,"_NULL_","_NULL_"
"Xanomeline High Dose","INVESTIGATIONS","BIOPSY","Y","count","quantity",1,124,2,1,"_NULL_","_NULL_"
"Xanomeline High Dose","INVESTIGATIONS","BIOPSY","Y","countdistinct","USUBJID",1,124,2,2,"_NULL_","_NULL_"
"Xanomeline High Dose","INVESTIGATIONS","BIOPSY PROSTATE","Y","count","quantity",1,125,2,1,"_NULL_","_NULL_"
"Xanomeline High Dose","INVESTIGATIONS","BIOPSY PROSTATE","Y","countdistinct","USUBJID",1,125,2,2,"_NULL_","_NULL_"
"Xanomeline High Dose","INVESTIGATIONS","BLOOD CHOLESTEROL INCREASED","Y","count","quantity",1,127,2,1,"_NULL_","_NULL_"
"Xanomeline High Dose","INVESTIGATIONS","BLOOD CHOLESTEROL INCREASED","Y","countdistinct","USUBJID",1,127,2,2,"_NULL_","_NULL_"
"Xanomeline High Dose","INVESTIGATIONS","BLOOD GLUCOSE INCREASED","Y","count","quantity",2,129,2,1,"_NULL_","_NULL_"
"Xanomeline High Dose","INVESTIGATIONS","BLOOD GLUCOSE INCREASED","Y","countdistinct","USUBJID",1,129,2,2,"_NULL_","_NULL_"
"Xanomeline High Dose","INVESTIGATIONS","ELECTROCARDIOGRAM T WAVE INVERSION","Y","count","quantity",1,135,2,1,"_NULL_","_NULL_"
"Xanomeline High Dose","INVESTIGATIONS","ELECTROCARDIOGRAM T WAVE INVERSION","Y","countdistinct","USUBJID",1,135,2,2,"_NULL_","_NULL_"
"Xanomeline High Dose","INVESTIGATIONS","WEIGHT DECREASED","Y","count","quantity",2,141,2,1,"_NULL_","_NULL_"
"Xanomeline High Dose","INVESTIGATIONS","WEIGHT DECREASED","Y","countdistinct","USUBJID",1,141,2,2,"_NULL_","_NULL_"
"Xanomeline High Dose","METABOLISM AND NUTRITION DISORDERS","_ALL_","Y","count","quantity",5,143,2,1,"_NULL_","_NULL_"
"Xanomeline High Dose","METABOLISM AND NUTRITION DISORDERS","_ALL_","Y","countdistinct","USUBJID",3,143,2,2,"_NULL_","_NULL_"
"Xanomeline High Dose","METABOLISM AND NUTRITION DISORDERS","DECREASED APPETITE","Y","count","quantity",2,144,2,1,"_NULL_","_NULL_"
"Xanomeline High Dose","METABOLISM AND NUTRITION DISORDERS","DECREASED APPETITE","Y","countdistinct","USUBJID",1,144,2,2,"_NULL_","_NULL_"
"Xanomeline High Dose","METABOLISM AND NUTRITION DISORDERS","HYPERCHOLESTEROLAEMIA","Y","count","quantity",1,148,2,1,"_NULL_","_NULL_"
"Xanomeline High Dose","METABOLISM AND NUTRITION DISORDERS","HYPERCHOLESTEROLAEMIA","Y","countdistinct","USUBJID",1,148,2,2,"_NULL_","_NULL_"
"Xanomeline High Dose","METABOLISM AND NUTRITION DISORDERS","INCREASED APPETITE","Y","count","quantity",2,150,2,1,"_NULL_","_NULL_"
"Xanomeline High Dose","METABOLISM AND NUTRITION DISORDERS","INCREASED APPETITE","Y","countdistinct","USUBJID",1,150,2,2,"_NULL_","_NULL_"
"Xanomeline High Dose","MUSCULOSKELETAL AND CONNECTIVE TISSUE DISORDERS","_ALL_","Y","count","quantity",11,151,2,1,"_NULL_","_NULL_"
"Xanomeline High Dose","MUSCULOSKELETAL AND CONNECTIVE TISSUE DISORDERS","_ALL_","Y","countdistinct","USUBJID",8,151,2,2,"_NULL_","_NULL_"
"Xanomeline High Dose","MUSCULOSKELETAL AND CONNECTIVE TISSUE DISORDERS","ARTHRALGIA","Y","count","quantity",1,152,2,1,"_NULL_","_NULL_"
"Xanomeline High Dose","MUSCULOSKELETAL AND CONNECTIVE TISSUE DISORDERS","ARTHRALGIA","Y","countdistinct","USUBJID",1,152,2,2,"_NULL_","_NULL_"
"Xanomeline High Dose","MUSCULOSKELETAL AND CONNECTIVE TISSUE DISORDERS","ARTHRITIS","Y","count","quantity",1,153,2,1,"_NULL_","_NULL_"
"Xanomeline High Dose","MUSCULOSKELETAL AND CONNECTIVE TISSUE DISORDERS","ARTHRITIS","Y","countdistinct","USUBJID",1,153,2,2,"_NULL_","_NULL_"
"Xanomeline High Dose","MUSCULOSKELETAL AND CONNECTIVE TISSUE DISORDERS","BACK PAIN","Y","count","quantity",4,154,2,1,"_NULL_","_NULL_"
"Xanomeline High Dose","MUSCULOSKELETAL AND CONNECTIVE TISSUE DISORDERS","BACK PAIN","Y","countdistinct","USUBJID",3,154,2,2,"_NULL_","_NULL_"
"Xanomeline High Dose","MUSCULOSKELETAL AND CONNECTIVE TISSUE DISORDERS","FLANK PAIN","Y","count","quantity",2,155,2,1,"_NULL_","_NULL_"
"Xanomeline High Dose","MUSCULOSKELETAL AND CONNECTIVE TISSUE DISORDERS","FLANK PAIN","Y","countdistinct","USUBJID",2,155,2,2,"_NULL_","_NULL_"
"Xanomeline High Dose","MUSCULOSKELETAL AND CONNECTIVE TISSUE DISORDERS","MUSCLE SPASMS","Y","count","quantity",2,156,2,1,"_NULL_","_NULL_"
"Xanomeline High Dose","MUSCULOSKELETAL AND CONNECTIVE TISSUE DISORDERS","MUSCLE SPASMS","Y","countdistinct","USUBJID",1,156,2,2,"_NULL_","_NULL_"
"Xanomeline High Dose","MUSCULOSKELETAL AND CONNECTIVE TISSUE DISORDERS","MYALGIA","Y","count","quantity",1,158,2,1,"_NULL_","_NULL_"
"Xanomeline High Dose","MUSCULOSKELETAL AND CONNECTIVE TISSUE DISORDERS","MYALGIA","Y","countdistinct","USUBJID",1,158,2,2,"_NULL_","_NULL_"
"Xanomeline High Dose","NEOPLASMS BENIGN, MALIGNANT AND UNSPECIFIED (INCL CYSTS AND POLYPS)","_ALL_","Y","count","quantity",1,161,2,1,"_NULL_","_NULL_"
"Xanomeline High Dose","NEOPLASMS BENIGN, MALIGNANT AND UNSPECIFIED (INCL CYSTS AND POLYPS)","_ALL_","Y","countdistinct","USUBJID",1,161,2,2,"_NULL_","_NULL_"
"Xanomeline High Dose","NEOPLASMS BENIGN, MALIGNANT AND UNSPECIFIED (INCL CYSTS AND POLYPS)","PROSTATE CANCER","Y","count","quantity",1,164,2,1,"_NULL_","_NULL_"
"Xanomeline High Dose","NEOPLASMS BENIGN, MALIGNANT AND UNSPECIFIED (INCL CYSTS AND POLYPS)","PROSTATE CANCER","Y","countdistinct","USUBJID",1,164,2,2,"_NULL_","_NULL_"
"Xanomeline High Dose","NERVOUS SYSTEM DISORDERS","_ALL_","Y","count","quantity",45,165,2,1,"_NULL_","_NULL_"
"Xanomeline High Dose","NERVOUS SYSTEM DISORDERS","_ALL_","Y","countdistinct","USUBJID",27,165,2,2,"_NULL_","_NULL_"
"Xanomeline High Dose","NERVOUS SYSTEM DISORDERS","AMNESIA","Y","count","quantity",2,166,2,1,"_NULL_","_NULL_"
"Xanomeline High Dose","NERVOUS SYSTEM DISORDERS","AMNESIA","Y","countdistinct","USUBJID",1,166,2,2,"_NULL_","_NULL_"
"Xanomeline High Dose","NERVOUS SYSTEM DISORDERS","BURNING SENSATION","Y","count","quantity",2,168,2,1,"_NULL_","_NULL_"
"Xanomeline High Dose","NERVOUS SYSTEM DISORDERS","BURNING SENSATION","Y","countdistinct","USUBJID",2,168,2,2,"_NULL_","_NULL_"
"Xanomeline High Dose","NERVOUS SYSTEM DISORDERS","COGNITIVE DISORDER","Y","count","quantity",1,169,2,1,"_NULL_","_NULL_"
"Xanomeline High Dose","NERVOUS SYSTEM DISORDERS","COGNITIVE DISORDER","Y","countdistinct","USUBJID",1,169,2,2,"_NULL_","_NULL_"
"Xanomeline High Dose","NERVOUS SYSTEM DISORDERS","DIZZINESS","Y","count","quantity",18,172,2,1,"_NULL_","_NULL_"
"Xanomeline High Dose","NERVOUS SYSTEM DISORDERS","DIZZINESS","Y","countdistinct","USUBJID",12,172,2,2,"_NULL_","_NULL_"
"Xanomeline High Dose","NERVOUS SYSTEM DISORDERS","HEADACHE","Y","count","quantity",9,173,2,1,"_NULL_","_NULL_"
"Xanomeline High Dose","NERVOUS SYSTEM DISORDERS","HEADACHE","Y","countdistinct","USUBJID",6,173,2,2,"_NULL_","_NULL_"
"Xanomeline High Dose","NERVOUS SYSTEM DISORDERS","HYPERSOMNIA","Y","count","quantity",1,175,2,1,"_NULL_","_NULL_"
"Xanomeline High Dose","NERVOUS SYSTEM DISORDERS","HYPERSOMNIA","Y","countdistinct","USUBJID",1,175,2,2,"_NULL_","_NULL_"
"Xanomeline High Dose","NERVOUS SYSTEM DISORDERS","LETHARGY","Y","count","quantity",1,176,2,1,"_NULL_","_NULL_"
"Xanomeline High Dose","NERVOUS SYSTEM DISORDERS","LETHARGY","Y","countdistinct","USUBJID",1,176,2,2,"_NULL_","_NULL_"
"Xanomeline High Dose","NERVOUS SYSTEM DISORDERS","PARAESTHESIA","Y","count","quantity",1,177,2,1,"_NULL_","_NULL_"
"Xanomeline High Dose","NERVOUS SYSTEM DISORDERS","PARAESTHESIA","Y","countdistinct","USUBJID",1,177,2,2,"_NULL_","_NULL_"
"Xanomeline High Dose","NERVOUS SYSTEM DISORDERS","PAROSMIA","Y","count","quantity",2,180,2,1,"_NULL_","_NULL_"
"Xanomeline High Dose","NERVOUS SYSTEM DISORDERS","PAROSMIA","Y","countdistinct","USUBJID",1,180,2,2,"_NULL_","_NULL_"
"Xanomeline High Dose","NERVOUS SYSTEM DISORDERS","PARTIAL SEIZURES WITH SECONDARY GENERALISATION","Y","count","quantity",1,181,2,1,"_NULL_","_NULL_"
"Xanomeline High Dose","NERVOUS SYSTEM DISORDERS","PARTIAL SEIZURES WITH SECONDARY GENERALISATION","Y","countdistinct","USUBJID",1,181,2,2,"_NULL_","_NULL_"
"Xanomeline High Dose","NERVOUS SYSTEM DISORDERS","SOMNOLENCE","Y","count","quantity",1,183,2,1,"_NULL_","_NULL_"
"Xanomeline High Dose","NERVOUS SYSTEM DISORDERS","SOMNOLENCE","Y","countdistinct","USUBJID",1,183,2,2,"_NULL_","_NULL_"
"Xanomeline High Dose","NERVOUS SYSTEM DISORDERS","SYNCOPE","Y","count","quantity",4,185,2,1,"_NULL_","_NULL_"
"Xanomeline High Dose","NERVOUS SYSTEM DISORDERS","SYNCOPE","Y","countdistinct","USUBJID",3,185,2,2,"_NULL_","_NULL_"
"Xanomeline High Dose","NERVOUS SYSTEM DISORDERS","SYNCOPE VASOVAGAL","Y","count","quantity",1,186,2,1,"_NULL_","_NULL_"
"Xanomeline High Dose","NERVOUS SYSTEM DISORDERS","SYNCOPE VASOVAGAL","Y","countdistinct","USUBJID",1,186,2,2,"_NULL_","_NULL_"
"Xanomeline High Dose","NERVOUS SYSTEM DISORDERS","TRANSIENT ISCHAEMIC ATTACK","Y","count","quantity",1,187,2,1,"_NULL_","_NULL_"
"Xanomeline High Dose","NERVOUS SYSTEM DISORDERS","TRANSIENT ISCHAEMIC ATTACK","Y","countdistinct","USUBJID",1,187,2,2,"_NULL_","_NULL_"
"Xanomeline High Dose","PSYCHIATRIC DISORDERS","_ALL_","Y","count","quantity",12,188,2,1,"_NULL_","_NULL_"
"Xanomeline High Dose","PSYCHIATRIC DISORDERS","_ALL_","Y","countdistinct","USUBJID",9,188,2,2,"_NULL_","_NULL_"
"Xanomeline High Dose","PSYCHIATRIC DISORDERS","AGITATION","Y","count","quantity",1,189,2,1,"_NULL_","_NULL_"
"Xanomeline High Dose","PSYCHIATRIC DISORDERS","AGITATION","Y","countdistinct","USUBJID",1,189,2,2,"_NULL_","_NULL_"
"Xanomeline High Dose","PSYCHIATRIC DISORDERS","CONFUSIONAL STATE","Y","count","quantity",1,192,2,1,"_NULL_","_NULL_"
"Xanomeline High Dose","PSYCHIATRIC DISORDERS","CONFUSIONAL STATE","Y","countdistinct","USUBJID",1,192,2,2,"_NULL_","_NULL_"
"Xanomeline High Dose","PSYCHIATRIC DISORDERS","DELIRIUM","Y","count","quantity",1,193,2,1,"_NULL_","_NULL_"
"Xanomeline High Dose","PSYCHIATRIC DISORDERS","DELIRIUM","Y","countdistinct","USUBJID",1,193,2,2,"_NULL_","_NULL_"
"Xanomeline High Dose","PSYCHIATRIC DISORDERS","DELUSION","Y","count","quantity",1,194,2,1,"_NULL_","_NULL_"
"Xanomeline High Dose","PSYCHIATRIC DISORDERS","DELUSION","Y","countdistinct","USUBJID",1,194,2,2,"_NULL_","_NULL_"
"Xanomeline High Dose","PSYCHIATRIC DISORDERS","DEPRESSED MOOD","Y","count","quantity",1,195,2,1,"_NULL_","_NULL_"
"Xanomeline High Dose","PSYCHIATRIC DISORDERS","DEPRESSED MOOD","Y","countdistinct","USUBJID",1,195,2,2,"_NULL_","_NULL_"
"Xanomeline High Dose","PSYCHIATRIC DISORDERS","HALLUCINATION","Y","count","quantity",1,197,2,1,"_NULL_","_NULL_"
"Xanomeline High Dose","PSYCHIATRIC DISORDERS","HALLUCINATION","Y","countdistinct","USUBJID",1,197,2,2,"_NULL_","_NULL_"
"Xanomeline High Dose","PSYCHIATRIC DISORDERS","HALLUCINATION, VISUAL","Y","count","quantity",1,198,2,1,"_NULL_","_NULL_"
"Xanomeline High Dose","PSYCHIATRIC DISORDERS","HALLUCINATION, VISUAL","Y","countdistinct","USUBJID",1,198,2,2,"_NULL_","_NULL_"
"Xanomeline High Dose","PSYCHIATRIC DISORDERS","INSOMNIA","Y","count","quantity",2,199,2,1,"_NULL_","_NULL_"
"Xanomeline High Dose","PSYCHIATRIC DISORDERS","INSOMNIA","Y","countdistinct","USUBJID",2,199,2,2,"_NULL_","_NULL_"
"Xanomeline High Dose","PSYCHIATRIC DISORDERS","LIBIDO DECREASED","Y","count","quantity",1,201,2,1,"_NULL_","_NULL_"
"Xanomeline High Dose","PSYCHIATRIC DISORDERS","LIBIDO DECREASED","Y","countdistinct","USUBJID",1,201,2,2,"_NULL_","_NULL_"
"Xanomeline High Dose","PSYCHIATRIC DISORDERS","LISTLESS","Y","count","quantity",1,202,2,1,"_NULL_","_NULL_"
"Xanomeline High Dose","PSYCHIATRIC DISORDERS","LISTLESS","Y","countdistinct","USUBJID",1,202,2,2,"_NULL_","_NULL_"
"Xanomeline High Dose","PSYCHIATRIC DISORDERS","NIGHTMARE","Y","count","quantity",1,203,2,1,"_NULL_","_NULL_"
"Xanomeline High Dose","PSYCHIATRIC DISORDERS","NIGHTMARE","Y","countdistinct","USUBJID",1,203,2,2,"_NULL_","_NULL_"
"Xanomeline High Dose","RENAL AND URINARY DISORDERS","_ALL_","Y","count","quantity",4,205,2,1,"_NULL_","_NULL_"
"Xanomeline High Dose","RENAL AND URINARY DISORDERS","_ALL_","Y","countdistinct","USUBJID",3,205,2,2,"_NULL_","_NULL_"
"Xanomeline High Dose","RENAL AND URINARY DISORDERS","CALCULUS URETHRAL","Y","count","quantity",1,206,2,1,"_NULL_","_NULL_"
"Xanomeline High Dose","RENAL AND URINARY DISORDERS","CALCULUS URETHRAL","Y","countdistinct","USUBJID",1,206,2,2,"_NULL_","_NULL_"
"Xanomeline High Dose","RENAL AND URINARY DISORDERS","MICTURITION URGENCY","Y","count","quantity",2,210,2,1,"_NULL_","_NULL_"
"Xanomeline High Dose","RENAL AND URINARY DISORDERS","MICTURITION URGENCY","Y","countdistinct","USUBJID",1,210,2,2,"_NULL_","_NULL_"
"Xanomeline High Dose","RENAL AND URINARY DISORDERS","NEPHROLITHIASIS","Y","count","quantity",1,211,2,1,"_NULL_","_NULL_"
"Xanomeline High Dose","RENAL AND URINARY DISORDERS","NEPHROLITHIASIS","Y","countdistinct","USUBJID",1,211,2,2,"_NULL_","_NULL_"
"Xanomeline High Dose","REPRODUCTIVE SYSTEM AND BREAST DISORDERS","_ALL_","Y","count","quantity",1,213,2,1,"_NULL_","_NULL_"
"Xanomeline High Dose","REPRODUCTIVE SYSTEM AND BREAST DISORDERS","_ALL_","Y","countdistinct","USUBJID",1,213,2,2,"_NULL_","_NULL_"
"Xanomeline High Dose","REPRODUCTIVE SYSTEM AND BREAST DISORDERS","BENIGN PROSTATIC HYPERPLASIA","Y","count","quantity",1,214,2,1,"_NULL_","_NULL_"
"Xanomeline High Dose","REPRODUCTIVE SYSTEM AND BREAST DISORDERS","BENIGN PROSTATIC HYPERPLASIA","Y","countdistinct","USUBJID",1,214,2,2,"_NULL_","_NULL_"
"Xanomeline High Dose","RESPIRATORY, THORACIC AND MEDIASTINAL DISORDERS","_ALL_","Y","count","quantity",22,216,2,1,"_NULL_","_NULL_"
"Xanomeline High Dose","RESPIRATORY, THORACIC AND MEDIASTINAL DISORDERS","_ALL_","Y","countdistinct","USUBJID",10,216,2,2,"_NULL_","_NULL_"
"Xanomeline High Dose","RESPIRATORY, THORACIC AND MEDIASTINAL DISORDERS","ALLERGIC GRANULOMATOUS ANGIITIS","Y","count","quantity",1,217,2,1,"_NULL_","_NULL_"
"Xanomeline High Dose","RESPIRATORY, THORACIC AND MEDIASTINAL DISORDERS","ALLERGIC GRANULOMATOUS ANGIITIS","Y","countdistinct","USUBJID",1,217,2,2,"_NULL_","_NULL_"
"Xanomeline High Dose","RESPIRATORY, THORACIC AND MEDIASTINAL DISORDERS","COUGH","Y","count","quantity",7,218,2,1,"_NULL_","_NULL_"
"Xanomeline High Dose","RESPIRATORY, THORACIC AND MEDIASTINAL DISORDERS","COUGH","Y","countdistinct","USUBJID",5,218,2,2,"_NULL_","_NULL_"
"Xanomeline High Dose","RESPIRATORY, THORACIC AND MEDIASTINAL DISORDERS","DYSPNOEA","Y","count","quantity",1,220,2,1,"_NULL_","_NULL_"
"Xanomeline High Dose","RESPIRATORY, THORACIC AND MEDIASTINAL DISORDERS","DYSPNOEA","Y","countdistinct","USUBJID",1,220,2,2,"_NULL_","_NULL_"
"Xanomeline High Dose","RESPIRATORY, THORACIC AND MEDIASTINAL DISORDERS","EPISTAXIS","Y","count","quantity",2,222,2,1,"_NULL_","_NULL_"
"Xanomeline High Dose","RESPIRATORY, THORACIC AND MEDIASTINAL DISORDERS","EPISTAXIS","Y","countdistinct","USUBJID",2,222,2,2,"_NULL_","_NULL_"
"Xanomeline High Dose","RESPIRATORY, THORACIC AND MEDIASTINAL DISORDERS","NASAL CONGESTION","Y","count","quantity",4,224,2,1,"_NULL_","_NULL_"
"Xanomeline High Dose","RESPIRATORY, THORACIC AND MEDIASTINAL DISORDERS","NASAL CONGESTION","Y","countdistinct","USUBJID",3,224,2,2,"_NULL_","_NULL_"
"Xanomeline High Dose","RESPIRATORY, THORACIC AND MEDIASTINAL DISORDERS","PHARYNGEAL ERYTHEMA","Y","count","quantity",2,225,2,1,"_NULL_","_NULL_"
"Xanomeline High Dose","RESPIRATORY, THORACIC AND MEDIASTINAL DISORDERS","PHARYNGEAL ERYTHEMA","Y","countdistinct","USUBJID",1,225,2,2,"_NULL_","_NULL_"
"Xanomeline High Dose","RESPIRATORY, THORACIC AND MEDIASTINAL DISORDERS","PHARYNGOLARYNGEAL PAIN","Y","count","quantity",1,226,2,1,"_NULL_","_NULL_"
"Xanomeline High Dose","RESPIRATORY, THORACIC AND MEDIASTINAL DISORDERS","PHARYNGOLARYNGEAL PAIN","Y","countdistinct","USUBJID",1,226,2,2,"_NULL_","_NULL_"
"Xanomeline High Dose","RESPIRATORY, THORACIC AND MEDIASTINAL DISORDERS","PRODUCTIVE COUGH","Y","count","quantity",1,228,2,1,"_NULL_","_NULL_"
"Xanomeline High Dose","RESPIRATORY, THORACIC AND MEDIASTINAL DISORDERS","PRODUCTIVE COUGH","Y","countdistinct","USUBJID",1,228,2,2,"_NULL_","_NULL_"
"Xanomeline High Dose","RESPIRATORY, THORACIC AND MEDIASTINAL DISORDERS","RESPIRATORY TRACT CONGESTION","Y","count","quantity",1,230,2,1,"_NULL_","_NULL_"
"Xanomeline High Dose","RESPIRATORY, THORACIC AND MEDIASTINAL DISORDERS","RESPIRATORY TRACT CONGESTION","Y","countdistinct","USUBJID",1,230,2,2,"_NULL_","_NULL_"
"Xanomeline High Dose","RESPIRATORY, THORACIC AND MEDIASTINAL DISORDERS","RHINORRHOEA","Y","count","quantity",2,231,2,1,"_NULL_","_NULL_"
"Xanomeline High Dose","RESPIRATORY, THORACIC AND MEDIASTINAL DISORDERS","RHINORRHOEA","Y","countdistinct","USUBJID",1,231,2,2,"_NULL_","_NULL_"
"Xanomeline High Dose","SKIN AND SUBCUTANEOUS TISSUE DISORDERS","_ALL_","Y","count","quantity",111,232,2,1,"_NULL_","_NULL_"
"Xanomeline High Dose","SKIN AND SUBCUTANEOUS TISSUE DISORDERS","_ALL_","Y","countdistinct","USUBJID",42,232,2,2,"_NULL_","_NULL_"
"Xanomeline High Dose","SKIN AND SUBCUTANEOUS TISSUE DISORDERS","ACTINIC KERATOSIS","Y","count","quantity",1,233,2,1,"_NULL_","_NULL_"
"Xanomeline High Dose","SKIN AND SUBCUTANEOUS TISSUE DISORDERS","ACTINIC KERATOSIS","Y","countdistinct","USUBJID",1,233,2,2,"_NULL_","_NULL_"
"Xanomeline High Dose","SKIN AND SUBCUTANEOUS TISSUE DISORDERS","BLISTER","Y","count","quantity",2,235,2,1,"_NULL_","_NULL_"
"Xanomeline High Dose","SKIN AND SUBCUTANEOUS TISSUE DISORDERS","BLISTER","Y","countdistinct","USUBJID",1,235,2,2,"_NULL_","_NULL_"
"Xanomeline High Dose","SKIN AND SUBCUTANEOUS TISSUE DISORDERS","ERYTHEMA","Y","count","quantity",22,240,2,1,"_NULL_","_NULL_"
"Xanomeline High Dose","SKIN AND SUBCUTANEOUS TISSUE DISORDERS","ERYTHEMA","Y","countdistinct","USUBJID",14,240,2,2,"_NULL_","_NULL_"
"Xanomeline High Dose","SKIN AND SUBCUTANEOUS TISSUE DISORDERS","HYPERHIDROSIS","Y","count","quantity",10,241,2,1,"_NULL_","_NULL_"
"Xanomeline High Dose","SKIN AND SUBCUTANEOUS TISSUE DISORDERS","HYPERHIDROSIS","Y","countdistinct","USUBJID",8,241,2,2,"_NULL_","_NULL_"
"Xanomeline High Dose","SKIN AND SUBCUTANEOUS TISSUE DISORDERS","PRURITUS","Y","count","quantity",38,242,2,1,"_NULL_","_NULL_"
"Xanomeline High Dose","SKIN AND SUBCUTANEOUS TISSUE DISORDERS","PRURITUS","Y","countdistinct","USUBJID",26,242,2,2,"_NULL_","_NULL_"
"Xanomeline High Dose","SKIN AND SUBCUTANEOUS TISSUE DISORDERS","PRURITUS GENERALISED","Y","count","quantity",1,243,2,1,"_NULL_","_NULL_"
"Xanomeline High Dose","SKIN AND SUBCUTANEOUS TISSUE DISORDERS","PRURITUS GENERALISED","Y","countdistinct","USUBJID",1,243,2,2,"_NULL_","_NULL_"
"Xanomeline High Dose","SKIN AND SUBCUTANEOUS TISSUE DISORDERS","RASH","Y","count","quantity",18,244,2,1,"_NULL_","_NULL_"
"Xanomeline High Dose","SKIN AND SUBCUTANEOUS TISSUE DISORDERS","RASH","Y","countdistinct","USUBJID",11,244,2,2,"_NULL_","_NULL_"
"Xanomeline High Dose","SKIN AND SUBCUTANEOUS TISSUE DISORDERS","RASH MACULO-PAPULAR","Y","count","quantity",3,246,2,1,"_NULL_","_NULL_"
"Xanomeline High Dose","SKIN AND SUBCUTANEOUS TISSUE DISORDERS","RASH MACULO-PAPULAR","Y","countdistinct","USUBJID",1,246,2,2,"_NULL_","_NULL_"
"Xanomeline High Dose","SKIN AND SUBCUTANEOUS TISSUE DISORDERS","RASH PAPULAR","Y","count","quantity",2,247,2,1,"_NULL_","_NULL_"
"Xanomeline High Dose","SKIN AND SUBCUTANEOUS TISSUE DISORDERS","RASH PAPULAR","Y","countdistinct","USUBJID",1,247,2,2,"_NULL_","_NULL_"
"Xanomeline High Dose","SKIN AND SUBCUTANEOUS TISSUE DISORDERS","RASH PRURITIC","Y","count","quantity",3,248,2,1,"_NULL_","_NULL_"
"Xanomeline High Dose","SKIN AND SUBCUTANEOUS TISSUE DISORDERS","RASH PRURITIC","Y","countdistinct","USUBJID",2,248,2,2,"_NULL_","_NULL_"
"Xanomeline High Dose","SKIN AND SUBCUTANEOUS TISSUE DISORDERS","SKIN IRRITATION","Y","count","quantity",8,250,2,1,"_NULL_","_NULL_"
"Xanomeline High Dose","SKIN AND SUBCUTANEOUS TISSUE DISORDERS","SKIN IRRITATION","Y","countdistinct","USUBJID",5,250,2,2,"_NULL_","_NULL_"
"Xanomeline High Dose","SKIN AND SUBCUTANEOUS TISSUE DISORDERS","SKIN ODOUR ABNORMAL","Y","count","quantity",1,251,2,1,"_NULL_","_NULL_"
"Xanomeline High Dose","SKIN AND SUBCUTANEOUS TISSUE DISORDERS","SKIN ODOUR ABNORMAL","Y","countdistinct","USUBJID",1,251,2,2,"_NULL_","_NULL_"
"Xanomeline High Dose","SKIN AND SUBCUTANEOUS TISSUE DISORDERS","URTICARIA","Y","count","quantity",2,253,2,1,"_NULL_","_NULL_"
"Xanomeline High Dose","SKIN AND SUBCUTANEOUS TISSUE DISORDERS","URTICARIA","Y","countdistinct","USUBJID",1,253,2,2,"_NULL_","_NULL_"
"Xanomeline High Dose","SOCIAL CIRCUMSTANCES","_ALL_","Y","count","quantity",1,254,2,1,"_NULL_","_NULL_"
"Xanomeline High Dose","SOCIAL CIRCUMSTANCES","_ALL_","Y","countdistinct","USUBJID",1,254,2,2,"_NULL_","_NULL_"
"Xanomeline High Dose","SOCIAL CIRCUMSTANCES","ALCOHOL USE","Y","count","quantity",1,255,2,1,"_NULL_","_NULL_"
"Xanomeline High Dose","SOCIAL CIRCUMSTANCES","ALCOHOL USE","Y","countdistinct","USUBJID",1,255,2,2,"_NULL_","_NULL_"
"Xanomeline High Dose","SURGICAL AND MEDICAL PROCEDURES","_ALL_","Y","count","quantity",2,256,2,1,"_NULL_","_NULL_"
"Xanomeline High Dose","SURGICAL AND MEDICAL PROCEDURES","_ALL_","Y","countdistinct","USUBJID",2,256,2,2,"_NULL_","_NULL_"
"Xanomeline High Dose","SURGICAL AND MEDICAL PROCEDURES","ACROCHORDON EXCISION","Y","count","quantity",1,257,2,1,"_NULL_","_NULL_"
"Xanomeline High Dose","SURGICAL AND MEDICAL PROCEDURES","ACROCHORDON EXCISION","Y","countdistinct","USUBJID",1,257,2,2,"_NULL_","_NULL_"
"Xanomeline High Dose","SURGICAL AND MEDICAL PROCEDURES","SKIN LESION EXCISION","Y","count","quantity",1,260,2,1,"_NULL_","_NULL_"
"Xanomeline High Dose","SURGICAL AND MEDICAL PROCEDURES","SKIN LESION EXCISION","Y","countdistinct","USUBJID",1,260,2,2,"_NULL_","_NULL_"
"Xanomeline High Dose","VASCULAR DISORDERS","_ALL_","Y","count","quantity",3,261,2,1,"_NULL_","_NULL_"
"Xanomeline High Dose","VASCULAR DISORDERS","_ALL_","Y","countdistinct","USUBJID",2,261,2,2,"_NULL_","_NULL_"
"Xanomeline High Dose","VASCULAR DISORDERS","HYPERTENSION","Y","count","quantity",2,263,2,1,"_NULL_","_NULL_"
"Xanomeline High Dose","VASCULAR DISORDERS","HYPERTENSION","Y","countdistinct","USUBJID",1,263,2,2,"_NULL_","_NULL_"
"Xanomeline High Dose","VASCULAR DISORDERS","WOUND HAEMORRHAGE","Y","count","quantity",1,266,2,1,"_NULL_","_NULL_"
"Xanomeline High Dose","VASCULAR DISORDERS","WOUND HAEMORRHAGE","Y","countdistinct","USUBJID",1,266,2,2,"_NULL_","_NULL_"
"Xanomeline Low Dose","_ALL_","_ALL_","Y","count","quantity",435,1,3,1,"_NULL_","_NULL_"
"Xanomeline Low Dose","_ALL_","_ALL_","Y","countdistinct","USUBJID",77,1,3,2,"_NULL_","_NULL_"
"Xanomeline Low Dose","CARDIAC DISORDERS","_ALL_","Y","count","quantity",30,2,3,1,"_NULL_","_NULL_"
"Xanomeline Low Dose","CARDIAC DISORDERS","_ALL_","Y","countdistinct","USUBJID",13,2,3,2,"_NULL_","_NULL_"
"Xanomeline Low Dose","CARDIAC DISORDERS","ATRIAL FIBRILLATION","Y","count","quantity",1,3,3,1,"_NULL_","_NULL_"
"Xanomeline Low Dose","CARDIAC DISORDERS","ATRIAL FIBRILLATION","Y","countdistinct","USUBJID",1,3,3,2,"_NULL_","_NULL_"
"Xanomeline Low Dose","CARDIAC DISORDERS","ATRIAL FLUTTER","Y","count","quantity",1,4,3,1,"_NULL_","_NULL_"
"Xanomeline Low Dose","CARDIAC DISORDERS","ATRIAL FLUTTER","Y","countdistinct","USUBJID",1,4,3,2,"_NULL_","_NULL_"
"Xanomeline Low Dose","CARDIAC DISORDERS","ATRIOVENTRICULAR BLOCK FIRST DEGREE","Y","count","quantity",1,6,3,1,"_NULL_","_NULL_"
"Xanomeline Low Dose","CARDIAC DISORDERS","ATRIOVENTRICULAR BLOCK FIRST DEGREE","Y","countdistinct","USUBJID",1,6,3,2,"_NULL_","_NULL_"
"Xanomeline Low Dose","CARDIAC DISORDERS","BUNDLE BRANCH BLOCK RIGHT","Y","count","quantity",1,10,3,1,"_NULL_","_NULL_"
"Xanomeline Low Dose","CARDIAC DISORDERS","BUNDLE BRANCH BLOCK RIGHT","Y","countdistinct","USUBJID",1,10,3,2,"_NULL_","_NULL_"
"Xanomeline Low Dose","CARDIAC DISORDERS","MYOCARDIAL INFARCTION","Y","count","quantity",4,13,3,1,"_NULL_","_NULL_"
"Xanomeline Low Dose","CARDIAC DISORDERS","MYOCARDIAL INFARCTION","Y","countdistinct","USUBJID",2,13,3,2,"_NULL_","_NULL_"
"Xanomeline Low Dose","CARDIAC DISORDERS","PALPITATIONS","Y","count","quantity",2,14,3,1,"_NULL_","_NULL_"
"Xanomeline Low Dose","CARDIAC DISORDERS","PALPITATIONS","Y","countdistinct","USUBJID",2,14,3,2,"_NULL_","_NULL_"
"Xanomeline Low Dose","CARDIAC DISORDERS","SINUS BRADYCARDIA","Y","count","quantity",10,16,3,1,"_NULL_","_NULL_"
"Xanomeline Low Dose","CARDIAC DISORDERS","SINUS BRADYCARDIA","Y","countdistinct","USUBJID",7,16,3,2,"_NULL_","_NULL_"
"Xanomeline Low Dose","CARDIAC DISORDERS","SUPRAVENTRICULAR EXTRASYSTOLES","Y","count","quantity",2,17,3,1,"_NULL_","_NULL_"
"Xanomeline Low Dose","CARDIAC DISORDERS","SUPRAVENTRICULAR EXTRASYSTOLES","Y","countdistinct","USUBJID",1,17,3,2,"_NULL_","_NULL_"
"Xanomeline Low Dose","CARDIAC DISORDERS","SUPRAVENTRICULAR TACHYCARDIA","Y","count","quantity",2,18,3,1,"_NULL_","_NULL_"
"Xanomeline Low Dose","CARDIAC DISORDERS","SUPRAVENTRICULAR TACHYCARDIA","Y","countdistinct","USUBJID",1,18,3,2,"_NULL_","_NULL_"
"Xanomeline Low Dose","CARDIAC DISORDERS","VENTRICULAR EXTRASYSTOLES","Y","count","quantity",4,20,3,1,"_NULL_","_NULL_"
"Xanomeline Low Dose","CARDIAC DISORDERS","VENTRICULAR EXTRASYSTOLES","Y","countdistinct","USUBJID",2,20,3,2,"_NULL_","_NULL_"
"Xanomeline Low Dose","CARDIAC DISORDERS","WOLFF-PARKINSON-WHITE SYNDROME","Y","count","quantity",2,22,3,1,"_NULL_","_NULL_"
"Xanomeline Low Dose","CARDIAC DISORDERS","WOLFF-PARKINSON-WHITE SYNDROME","Y","countdistinct","USUBJID",1,22,3,2,"_NULL_","_NULL_"
"Xanomeline Low Dose","CONGENITAL, FAMILIAL AND GENETIC DISORDERS","_ALL_","Y","count","quantity",1,23,3,1,"_NULL_","_NULL_"
"Xanomeline Low Dose","CONGENITAL, FAMILIAL AND GENETIC DISORDERS","_ALL_","Y","countdistinct","USUBJID",1,23,3,2,"_NULL_","_NULL_"
"Xanomeline Low Dose","CONGENITAL, FAMILIAL AND GENETIC DISORDERS","VENTRICULAR SEPTAL DEFECT","Y","count","quantity",1,24,3,1,"_NULL_","_NULL_"
"Xanomeline Low Dose","CONGENITAL, FAMILIAL AND GENETIC DISORDERS","VENTRICULAR SEPTAL DEFECT","Y","countdistinct","USUBJID",1,24,3,2,"_NULL_","_NULL_"
"Xanomeline Low Dose","EAR AND LABYRINTH DISORDERS","_ALL_","Y","count","quantity",3,25,3,1,"_NULL_","_NULL_"
"Xanomeline Low Dose","EAR AND LABYRINTH DISORDERS","_ALL_","Y","countdistinct","USUBJID",2,25,3,2,"_NULL_","_NULL_"
"Xanomeline Low Dose","EAR AND LABYRINTH DISORDERS","CERUMEN IMPACTION","Y","count","quantity",1,26,3,1,"_NULL_","_NULL_"
"Xanomeline Low Dose","EAR AND LABYRINTH DISORDERS","CERUMEN IMPACTION","Y","countdistinct","USUBJID",1,26,3,2,"_NULL_","_NULL_"
"Xanomeline Low Dose","EAR AND LABYRINTH DISORDERS","TINNITUS","Y","count","quantity",1,28,3,1,"_NULL_","_NULL_"
"Xanomeline Low Dose","EAR AND LABYRINTH DISORDERS","TINNITUS","Y","countdistinct","USUBJID",1,28,3,2,"_NULL_","_NULL_"
"Xanomeline Low Dose","EAR AND LABYRINTH DISORDERS","VERTIGO","Y","count","quantity",1,29,3,1,"_NULL_","_NULL_"
"Xanomeline Low Dose","EAR AND LABYRINTH DISORDERS","VERTIGO","Y","countdistinct","USUBJID",1,29,3,2,"_NULL_","_NULL_"
"Xanomeline Low Dose","EYE DISORDERS","_ALL_","Y","count","quantity",2,30,3,1,"_NULL_","_NULL_"
"Xanomeline Low Dose","EYE DISORDERS","_ALL_","Y","countdistinct","USUBJID",2,30,3,2,"_NULL_","_NULL_"
"Xanomeline Low Dose","EYE DISORDERS","CONJUNCTIVAL HAEMORRHAGE","Y","count","quantity",1,31,3,1,"_NULL_","_NULL_"
"Xanomeline Low Dose","EYE DISORDERS","CONJUNCTIVAL HAEMORRHAGE","Y","countdistinct","USUBJID",1,31,3,2,"_NULL_","_NULL_"
"Xanomeline Low Dose","EYE DISORDERS","VISION BLURRED","Y","count","quantity",1,37,3,1,"_NULL_","_NULL_"
"Xanomeline Low Dose","EYE DISORDERS","VISION BLURRED","Y","countdistinct","USUBJID",1,37,3,2,"_NULL_","_NULL_"
"Xanomeline Low Dose","GASTROINTESTINAL DISORDERS","_ALL_","Y","count","quantity",24,38,3,1,"_NULL_","_NULL_"
"Xanomeline Low Dose","GASTROINTESTINAL DISORDERS","_ALL_","Y","countdistinct","USUBJID",15,38,3,2,"_NULL_","_NULL_"
"Xanomeline Low Dose","GASTROINTESTINAL DISORDERS","ABDOMINAL PAIN","Y","count","quantity",3,40,3,1,"_NULL_","_NULL_"
"Xanomeline Low Dose","GASTROINTESTINAL DISORDERS","ABDOMINAL PAIN","Y","countdistinct","USUBJID",3,40,3,2,"_NULL_","_NULL_"
"Xanomeline Low Dose","GASTROINTESTINAL DISORDERS","DIARRHOEA","Y","count","quantity",7,42,3,1,"_NULL_","_NULL_"
"Xanomeline Low Dose","GASTROINTESTINAL DISORDERS","DIARRHOEA","Y","countdistinct","USUBJID",5,42,3,2,"_NULL_","_NULL_"
"Xanomeline Low Dose","GASTROINTESTINAL DISORDERS","DYSPEPSIA","Y","count","quantity",2,43,3,1,"_NULL_","_NULL_"
"Xanomeline Low Dose","GASTROINTESTINAL DISORDERS","DYSPEPSIA","Y","countdistinct","USUBJID",1,43,3,2,"_NULL_","_NULL_"
"Xanomeline Low Dose","GASTROINTESTINAL DISORDERS","DYSPHAGIA","Y","count","quantity",1,44,3,1,"_NULL_","_NULL_"
"Xanomeline Low Dose","GASTROINTESTINAL DISORDERS","DYSPHAGIA","Y","countdistinct","USUBJID",1,44,3,2,"_NULL_","_NULL_"
"Xanomeline Low Dose","GASTROINTESTINAL DISORDERS","NAUSEA","Y","count","quantity",5,50,3,1,"_NULL_","_NULL_"
"Xanomeline Low Dose","GASTROINTESTINAL DISORDERS","NAUSEA","Y","countdistinct","USUBJID",3,50,3,2,"_NULL_","_NULL_"
"Xanomeline Low Dose","GASTROINTESTINAL DISORDERS","RECTAL HAEMORRHAGE","Y","count","quantity",2,51,3,1,"_NULL_","_NULL_"
"Xanomeline Low Dose","GASTROINTESTINAL DISORDERS","RECTAL HAEMORRHAGE","Y","countdistinct","USUBJID",1,51,3,2,"_NULL_","_NULL_"
"Xanomeline Low Dose","GASTROINTESTINAL DISORDERS","VOMITING","Y","count","quantity",4,54,3,1,"_NULL_","_NULL_"
"Xanomeline Low Dose","GASTROINTESTINAL DISORDERS","VOMITING","Y","countdistinct","USUBJID",3,54,3,2,"_NULL_","_NULL_"
"Xanomeline Low Dose","GENERAL DISORDERS AND ADMINISTRATION SITE CONDITIONS","_ALL_","Y","count","quantity",120,55,3,1,"_NULL_","_NULL_"
"Xanomeline Low Dose","GENERAL DISORDERS AND ADMINISTRATION SITE CONDITIONS","_ALL_","Y","countdistinct","USUBJID",47,55,3,2,"_NULL_","_NULL_"
"Xanomeline Low Dose","GENERAL DISORDERS AND ADMINISTRATION SITE CONDITIONS","APPLICATION SITE BLEEDING","Y","count","quantity",1,56,3,1,"_NULL_","_NULL_"
"Xanomeline Low Dose","GENERAL DISORDERS AND ADMINISTRATION SITE CONDITIONS","APPLICATION SITE BLEEDING","Y","countdistinct","USUBJID",1,56,3,2,"_NULL_","_NULL_"
"Xanomeline Low Dose","GENERAL DISORDERS AND ADMINISTRATION SITE CONDITIONS","APPLICATION SITE DERMATITIS","Y","count","quantity",15,57,3,1,"_NULL_","_NULL_"
"Xanomeline Low Dose","GENERAL DISORDERS AND ADMINISTRATION SITE CONDITIONS","APPLICATION SITE DERMATITIS","Y","countdistinct","USUBJID",9,57,3,2,"_NULL_","_NULL_"
"Xanomeline Low Dose","GENERAL DISORDERS AND ADMINISTRATION SITE CONDITIONS","APPLICATION SITE DESQUAMATION","Y","count","quantity",1,58,3,1,"_NULL_","_NULL_"
"Xanomeline Low Dose","GENERAL DISORDERS AND ADMINISTRATION SITE CONDITIONS","APPLICATION SITE DESQUAMATION","Y","countdistinct","USUBJID",1,58,3,2,"_NULL_","_NULL_"
"Xanomeline Low Dose","GENERAL DISORDERS AND ADMINISTRATION SITE CONDITIONS","APPLICATION SITE DISCOLOURATION","Y","count","quantity",1,60,3,1,"_NULL_","_NULL_"
"Xanomeline Low Dose","GENERAL DISORDERS AND ADMINISTRATION SITE CONDITIONS","APPLICATION SITE DISCOLOURATION","Y","countdistinct","USUBJID",1,60,3,2,"_NULL_","_NULL_"
"Xanomeline Low Dose","GENERAL DISORDERS AND ADMINISTRATION SITE CONDITIONS","APPLICATION SITE ERYTHEMA","Y","count","quantity",20,61,3,1,"_NULL_","_NULL_"
"Xanomeline Low Dose","GENERAL DISORDERS AND ADMINISTRATION SITE CONDITIONS","APPLICATION SITE ERYTHEMA","Y","countdistinct","USUBJID",12,61,3,2,"_NULL_","_NULL_"
"Xanomeline Low Dose","GENERAL DISORDERS AND ADMINISTRATION SITE CONDITIONS","APPLICATION SITE IRRITATION","Y","count","quantity",18,63,3,1,"_NULL_","_NULL_"
"Xanomeline Low Dose","GENERAL DISORDERS AND ADMINISTRATION SITE CONDITIONS","APPLICATION SITE IRRITATION","Y","countdistinct","USUBJID",9,63,3,2,"_NULL_","_NULL_"
"Xanomeline Low Dose","GENERAL DISORDERS AND ADMINISTRATION SITE CONDITIONS","APPLICATION SITE PRURITUS","Y","count","quantity",33,66,3,1,"_NULL_","_NULL_"
"Xanomeline Low Dose","GENERAL DISORDERS AND ADMINISTRATION SITE CONDITIONS","APPLICATION SITE PRURITUS","Y","countdistinct","USUBJID",22,66,3,2,"_NULL_","_NULL_"
"Xanomeline Low Dose","GENERAL DISORDERS AND ADMINISTRATION SITE CONDITIONS","APPLICATION SITE SWELLING","Y","count","quantity",1,68,3,1,"_NULL_","_NULL_"
"Xanomeline Low Dose","GENERAL DISORDERS AND ADMINISTRATION SITE CONDITIONS","APPLICATION SITE SWELLING","Y","countdistinct","USUBJID",1,68,3,2,"_NULL_","_NULL_"
"Xanomeline Low Dose","GENERAL DISORDERS AND ADMINISTRATION SITE CONDITIONS","APPLICATION SITE URTICARIA","Y","count","quantity",2,69,3,1,"_NULL_","_NULL_"
"Xanomeline Low Dose","GENERAL DISORDERS AND ADMINISTRATION SITE CONDITIONS","APPLICATION SITE URTICARIA","Y","countdistinct","USUBJID",2,69,3,2,"_NULL_","_NULL_"
"Xanomeline Low Dose","GENERAL DISORDERS AND ADMINISTRATION SITE CONDITIONS","APPLICATION SITE VESICLES","Y","count","quantity",5,70,3,1,"_NULL_","_NULL_"
"Xanomeline Low Dose","GENERAL DISORDERS AND ADMINISTRATION SITE CONDITIONS","APPLICATION SITE VESICLES","Y","countdistinct","USUBJID",4,70,3,2,"_NULL_","_NULL_"
"Xanomeline Low Dose","GENERAL DISORDERS AND ADMINISTRATION SITE CONDITIONS","APPLICATION SITE WARMTH","Y","count","quantity",2,71,3,1,"_NULL_","_NULL_"
"Xanomeline Low Dose","GENERAL DISORDERS AND ADMINISTRATION SITE CONDITIONS","APPLICATION SITE WARMTH","Y","countdistinct","USUBJID",1,71,3,2,"_NULL_","_NULL_"
"Xanomeline Low Dose","GENERAL DISORDERS AND ADMINISTRATION SITE CONDITIONS","CHILLS","Y","count","quantity",2,75,3,1,"_NULL_","_NULL_"
"Xanomeline Low Dose","GENERAL DISORDERS AND ADMINISTRATION SITE CONDITIONS","CHILLS","Y","countdistinct","USUBJID",1,75,3,2,"_NULL_","_NULL_"
"Xanomeline Low Dose","GENERAL DISORDERS AND ADMINISTRATION SITE CONDITIONS","CYST","Y","count","quantity",1,76,3,1,"_NULL_","_NULL_"
"Xanomeline Low Dose","GENERAL DISORDERS AND ADMINISTRATION SITE CONDITIONS","CYST","Y","countdistinct","USUBJID",1,76,3,2,"_NULL_","_NULL_"
"Xanomeline Low Dose","GENERAL DISORDERS AND ADMINISTRATION SITE CONDITIONS","FATIGUE","Y","count","quantity",5,77,3,1,"_NULL_","_NULL_"
"Xanomeline Low Dose","GENERAL DISORDERS AND ADMINISTRATION SITE CONDITIONS","FATIGUE","Y","countdistinct","USUBJID",5,77,3,2,"_NULL_","_NULL_"
"Xanomeline Low Dose","GENERAL DISORDERS AND ADMINISTRATION SITE CONDITIONS","INFLAMMATION","Y","count","quantity",1,80,3,1,"_NULL_","_NULL_"
"Xanomeline Low Dose","GENERAL DISORDERS AND ADMINISTRATION SITE CONDITIONS","INFLAMMATION","Y","countdistinct","USUBJID",1,80,3,2,"_NULL_","_NULL_"
"Xanomeline Low Dose","GENERAL DISORDERS AND ADMINISTRATION SITE CONDITIONS","MALAISE","Y","count","quantity",2,81,3,1,"_NULL_","_NULL_"
"Xanomeline Low Dose","GENERAL DISORDERS AND ADMINISTRATION SITE CONDITIONS","MALAISE","Y","countdistinct","USUBJID",1,81,3,2,"_NULL_","_NULL_"
"Xanomeline Low Dose","GENERAL DISORDERS AND ADMINISTRATION SITE CONDITIONS","OEDEMA","Y","count","quantity",2,82,3,1,"_NULL_","_NULL_"
"Xanomeline Low Dose","GENERAL DISORDERS AND ADMINISTRATION SITE CONDITIONS","OEDEMA","Y","countdistinct","USUBJID",2,82,3,2,"_NULL_","_NULL_"
"Xanomeline Low Dose","GENERAL DISORDERS AND ADMINISTRATION SITE CONDITIONS","OEDEMA PERIPHERAL","Y","count","quantity",1,83,3,1,"_NULL_","_NULL_"
"Xanomeline Low Dose","GENERAL DISORDERS AND ADMINISTRATION SITE CONDITIONS","OEDEMA PERIPHERAL","Y","countdistinct","USUBJID",1,83,3,2,"_NULL_","_NULL_"
"Xanomeline Low Dose","GENERAL DISORDERS AND ADMINISTRATION SITE CONDITIONS","PAIN","Y","count","quantity",2,84,3,1,"_NULL_","_NULL_"
"Xanomeline Low Dose","GENERAL DISORDERS AND ADMINISTRATION SITE CONDITIONS","PAIN","Y","countdistinct","USUBJID",1,84,3,2,"_NULL_","_NULL_"
"Xanomeline Low Dose","GENERAL DISORDERS AND ADMINISTRATION SITE CONDITIONS","SECRETION DISCHARGE","Y","count","quantity",2,86,3,1,"_NULL_","_NULL_"
"Xanomeline Low Dose","GENERAL DISORDERS AND ADMINISTRATION SITE CONDITIONS","SECRETION DISCHARGE","Y","countdistinct","USUBJID",1,86,3,2,"_NULL_","_NULL_"
"Xanomeline Low Dose","GENERAL DISORDERS AND ADMINISTRATION SITE CONDITIONS","SUDDEN DEATH","Y","count","quantity",1,87,3,1,"_NULL_","_NULL_"
"Xanomeline Low Dose","GENERAL DISORDERS AND ADMINISTRATION SITE CONDITIONS","SUDDEN DEATH","Y","countdistinct","USUBJID",1,87,3,2,"_NULL_","_NULL_"
"Xanomeline Low Dose","GENERAL DISORDERS AND ADMINISTRATION SITE CONDITIONS","SWELLING","Y","count","quantity",1,88,3,1,"_NULL_","_NULL_"
"Xanomeline Low Dose","GENERAL DISORDERS AND ADMINISTRATION SITE CONDITIONS","SWELLING","Y","countdistinct","USUBJID",1,88,3,2,"_NULL_","_NULL_"
"Xanomeline Low Dose","GENERAL DISORDERS AND ADMINISTRATION SITE CONDITIONS","ULCER","Y","count","quantity",1,89,3,1,"_NULL_","_NULL_"
"Xanomeline Low Dose","GENERAL DISORDERS AND ADMINISTRATION SITE CONDITIONS","ULCER","Y","countdistinct","USUBJID",1,89,3,2,"_NULL_","_NULL_"
"Xanomeline Low Dose","IMMUNE SYSTEM DISORDERS","_ALL_","Y","count","quantity",2,92,3,1,"_NULL_","_NULL_"
"Xanomeline Low Dose","IMMUNE SYSTEM DISORDERS","_ALL_","Y","countdistinct","USUBJID",1,92,3,2,"_NULL_","_NULL_"
"Xanomeline Low Dose","IMMUNE SYSTEM DISORDERS","HYPERSENSITIVITY","Y","count","quantity",2,93,3,1,"_NULL_","_NULL_"
"Xanomeline Low Dose","IMMUNE SYSTEM DISORDERS","HYPERSENSITIVITY","Y","countdistinct","USUBJID",1,93,3,2,"_NULL_","_NULL_"
"Xanomeline Low Dose","INFECTIONS AND INFESTATIONS","_ALL_","Y","count","quantity",18,95,3,1,"_NULL_","_NULL_"
"Xanomeline Low Dose","INFECTIONS AND INFESTATIONS","_ALL_","Y","countdistinct","USUBJID",10,95,3,2,"_NULL_","_NULL_"
"Xanomeline Low Dose","INFECTIONS AND INFESTATIONS","CELLULITIS","Y","count","quantity",1,97,3,1,"_NULL_","_NULL_"
"Xanomeline Low Dose","INFECTIONS AND INFESTATIONS","CELLULITIS","Y","countdistinct","USUBJID",1,97,3,2,"_NULL_","_NULL_"
"Xanomeline Low Dose","INFECTIONS AND INFESTATIONS","INFLUENZA","Y","count","quantity",1,103,3,1,"_NULL_","_NULL_"
"Xanomeline Low Dose","INFECTIONS AND INFESTATIONS","INFLUENZA","Y","countdistinct","USUBJID",1,103,3,2,"_NULL_","_NULL_"
"Xanomeline Low Dose","INFECTIONS AND INFESTATIONS","LOCALISED INFECTION","Y","count","quantity",1,104,3,1,"_NULL_","_NULL_"
"Xanomeline Low Dose","INFECTIONS AND INFESTATIONS","LOCALISED INFECTION","Y","countdistinct","USUBJID",1,104,3,2,"_NULL_","_NULL_"
"Xanomeline Low Dose","INFECTIONS AND INFESTATIONS","NASOPHARYNGITIS","Y","count","quantity",9,106,3,1,"_NULL_","_NULL_"
"Xanomeline Low Dose","INFECTIONS AND INFESTATIONS","NASOPHARYNGITIS","Y","countdistinct","USUBJID",4,106,3,2,"_NULL_","_NULL_"
"Xanomeline Low Dose","INFECTIONS AND INFESTATIONS","ONYCHOMYCOSIS","Y","count","quantity",1,107,3,1,"_NULL_","_NULL_"
"Xanomeline Low Dose","INFECTIONS AND INFESTATIONS","ONYCHOMYCOSIS","Y","countdistinct","USUBJID",1,107,3,2,"_NULL_","_NULL_"
"Xanomeline Low Dose","INFECTIONS AND INFESTATIONS","PNEUMONIA","Y","count","quantity",2,108,3,1,"_NULL_","_NULL_"
"Xanomeline Low Dose","INFECTIONS AND INFESTATIONS","PNEUMONIA","Y","countdistinct","USUBJID",1,108,3,2,"_NULL_","_NULL_"
"Xanomeline Low Dose","INFECTIONS AND INFESTATIONS","UPPER RESPIRATORY TRACT INFECTION","Y","count","quantity",2,110,3,1,"_NULL_","_NULL_"
"Xanomeline Low Dose","INFECTIONS AND INFESTATIONS","UPPER RESPIRATORY TRACT INFECTION","Y","countdistinct","USUBJID",1,110,3,2,"_NULL_","_NULL_"
"Xanomeline Low Dose","INFECTIONS AND INFESTATIONS","VIRAL INFECTION","Y","count","quantity",1,113,3,1,"_NULL_","_NULL_"
"Xanomeline Low Dose","INFECTIONS AND INFESTATIONS","VIRAL INFECTION","Y","countdistinct","USUBJID",1,113,3,2,"_NULL_","_NULL_"
"Xanomeline Low Dose","INJURY, POISONING AND PROCEDURAL COMPLICATIONS","_ALL_","Y","count","quantity",12,114,3,1,"_NULL_","_NULL_"
"Xanomeline Low Dose","INJURY, POISONING AND PROCEDURAL COMPLICATIONS","_ALL_","Y","countdistinct","USUBJID",5,114,3,2,"_NULL_","_NULL_"
"Xanomeline Low Dose","INJURY, POISONING AND PROCEDURAL COMPLICATIONS","CONTUSION","Y","count","quantity",3,115,3,1,"_NULL_","_NULL_"
"Xanomeline Low Dose","INJURY, POISONING AND PROCEDURAL COMPLICATIONS","CONTUSION","Y","countdistinct","USUBJID",1,115,3,2,"_NULL_","_NULL_"
"Xanomeline Low Dose","INJURY, POISONING AND PROCEDURAL COMPLICATIONS","EXCORIATION","Y","count","quantity",2,116,3,1,"_NULL_","_NULL_"
"Xanomeline Low Dose","INJURY, POISONING AND PROCEDURAL COMPLICATIONS","EXCORIATION","Y","countdistinct","USUBJID",1,116,3,2,"_NULL_","_NULL_"
"Xanomeline Low Dose","INJURY, POISONING AND PROCEDURAL COMPLICATIONS","FALL","Y","count","quantity",2,118,3,1,"_NULL_","_NULL_"
"Xanomeline Low Dose","INJURY, POISONING AND PROCEDURAL COMPLICATIONS","FALL","Y","countdistinct","USUBJID",2,118,3,2,"_NULL_","_NULL_"
"Xanomeline Low Dose","INJURY, POISONING AND PROCEDURAL COMPLICATIONS","JOINT DISLOCATION","Y","count","quantity",1,120,3,1,"_NULL_","_NULL_"
"Xanomeline Low Dose","INJURY, POISONING AND PROCEDURAL COMPLICATIONS","JOINT DISLOCATION","Y","countdistinct","USUBJID",1,120,3,2,"_NULL_","_NULL_"
"Xanomeline Low Dose","INJURY, POISONING AND PROCEDURAL COMPLICATIONS","SKIN LACERATION","Y","count","quantity",2,121,3,1,"_NULL_","_NULL_"
"Xanomeline Low Dose","INJURY, POISONING AND PROCEDURAL COMPLICATIONS","SKIN LACERATION","Y","countdistinct","USUBJID",2,121,3,2,"_NULL_","_NULL_"
"Xanomeline Low Dose","INJURY, POISONING AND PROCEDURAL COMPLICATIONS","WOUND","Y","count","quantity",2,122,3,1,"_NULL_","_NULL_"
"Xanomeline Low Dose","INJURY, POISONING AND PROCEDURAL COMPLICATIONS","WOUND","Y","countdistinct","USUBJID",1,122,3,2,"_NULL_","_NULL_"
"Xanomeline Low Dose","INVESTIGATIONS","_ALL_","Y","count","quantity",13,123,3,1,"_NULL_","_NULL_"
"Xanomeline Low Dose","INVESTIGATIONS","_ALL_","Y","countdistinct","USUBJID",7,123,3,2,"_NULL_","_NULL_"
"Xanomeline Low Dose","INVESTIGATIONS","BLOOD GLUCOSE INCREASED","Y","count","quantity",1,129,3,1,"_NULL_","_NULL_"
"Xanomeline Low Dose","INVESTIGATIONS","BLOOD GLUCOSE INCREASED","Y","countdistinct","USUBJID",1,129,3,2,"_NULL_","_NULL_"
"Xanomeline Low Dose","INVESTIGATIONS","BODY TEMPERATURE INCREASED","Y","count","quantity",1,131,3,1,"_NULL_","_NULL_"
"Xanomeline Low Dose","INVESTIGATIONS","BODY TEMPERATURE INCREASED","Y","countdistinct","USUBJID",1,131,3,2,"_NULL_","_NULL_"
"Xanomeline Low Dose","INVESTIGATIONS","ELECTROCARDIOGRAM ST SEGMENT DEPRESSION","Y","count","quantity",2,133,3,1,"_NULL_","_NULL_"
"Xanomeline Low Dose","INVESTIGATIONS","ELECTROCARDIOGRAM ST SEGMENT DEPRESSION","Y","countdistinct","USUBJID",1,133,3,2,"_NULL_","_NULL_"
"Xanomeline Low Dose","INVESTIGATIONS","ELECTROCARDIOGRAM T WAVE AMPLITUDE DECREASED","Y","count","quantity",1,134,3,1,"_NULL_","_NULL_"
"Xanomeline Low Dose","INVESTIGATIONS","ELECTROCARDIOGRAM T WAVE AMPLITUDE DECREASED","Y","countdistinct","USUBJID",1,134,3,2,"_NULL_","_NULL_"
"Xanomeline Low Dose","INVESTIGATIONS","ELECTROCARDIOGRAM T WAVE INVERSION","Y","count","quantity",1,135,3,1,"_NULL_","_NULL_"
"Xanomeline Low Dose","INVESTIGATIONS","ELECTROCARDIOGRAM T WAVE INVERSION","Y","countdistinct","USUBJID",1,135,3,2,"_NULL_","_NULL_"
"Xanomeline Low Dose","INVESTIGATIONS","NASAL MUCOSA BIOPSY","Y","count","quantity",1,138,3,1,"_NULL_","_NULL_"
"Xanomeline Low Dose","INVESTIGATIONS","NASAL MUCOSA BIOPSY","Y","countdistinct","USUBJID",1,138,3,2,"_NULL_","_NULL_"
"Xanomeline Low Dose","INVESTIGATIONS","NEUTROPHIL COUNT INCREASED","Y","count","quantity",2,139,3,1,"_NULL_","_NULL_"
"Xanomeline Low Dose","INVESTIGATIONS","NEUTROPHIL COUNT INCREASED","Y","countdistinct","USUBJID",1,139,3,2,"_NULL_","_NULL_"
"Xanomeline Low Dose","INVESTIGATIONS","URINE ANALYSIS ABNORMAL","Y","count","quantity",2,140,3,1,"_NULL_","_NULL_"
"Xanomeline Low Dose","INVESTIGATIONS","URINE ANALYSIS ABNORMAL","Y","countdistinct","USUBJID",1,140,3,2,"_NULL_","_NULL_"
"Xanomeline Low Dose","INVESTIGATIONS","WHITE BLOOD CELL COUNT INCREASED","Y","count","quantity",2,142,3,1,"_NULL_","_NULL_"
"Xanomeline Low Dose","INVESTIGATIONS","WHITE BLOOD CELL COUNT INCREASED","Y","countdistinct","USUBJID",1,142,3,2,"_NULL_","_NULL_"
"Xanomeline Low Dose","METABOLISM AND NUTRITION DISORDERS","_ALL_","Y","count","quantity",1,143,3,1,"_NULL_","_NULL_"
"Xanomeline Low Dose","METABOLISM AND NUTRITION DISORDERS","_ALL_","Y","countdistinct","USUBJID",1,143,3,2,"_NULL_","_NULL_"
"Xanomeline Low Dose","METABOLISM AND NUTRITION DISORDERS","FOOD CRAVING","Y","count","quantity",1,147,3,1,"_NULL_","_NULL_"
"Xanomeline Low Dose","METABOLISM AND NUTRITION DISORDERS","FOOD CRAVING","Y","countdistinct","USUBJID",1,147,3,2,"_NULL_","_NULL_"
"Xanomeline Low Dose","MUSCULOSKELETAL AND CONNECTIVE TISSUE DISORDERS","_ALL_","Y","count","quantity",10,151,3,1,"_NULL_","_NULL_"
"Xanomeline Low Dose","MUSCULOSKELETAL AND CONNECTIVE TISSUE DISORDERS","_ALL_","Y","countdistinct","USUBJID",7,151,3,2,"_NULL_","_NULL_"
"Xanomeline Low Dose","MUSCULOSKELETAL AND CONNECTIVE TISSUE DISORDERS","ARTHRALGIA","Y","count","quantity",4,152,3,1,"_NULL_","_NULL_"
"Xanomeline Low Dose","MUSCULOSKELETAL AND CONNECTIVE TISSUE DISORDERS","ARTHRALGIA","Y","countdistinct","USUBJID",2,152,3,2,"_NULL_","_NULL_"
"Xanomeline Low Dose","MUSCULOSKELETAL AND CONNECTIVE TISSUE DISORDERS","BACK PAIN","Y","count","quantity",1,154,3,1,"_NULL_","_NULL_"
"Xanomeline Low Dose","MUSCULOSKELETAL AND CONNECTIVE TISSUE DISORDERS","BACK PAIN","Y","countdistinct","USUBJID",1,154,3,2,"_NULL_","_NULL_"
"Xanomeline Low Dose","MUSCULOSKELETAL AND CONNECTIVE TISSUE DISORDERS","MUSCLE SPASMS","Y","count","quantity",1,156,3,1,"_NULL_","_NULL_"
"Xanomeline Low Dose","MUSCULOSKELETAL AND CONNECTIVE TISSUE DISORDERS","MUSCLE SPASMS","Y","countdistinct","USUBJID",1,156,3,2,"_NULL_","_NULL_"
"Xanomeline Low Dose","MUSCULOSKELETAL AND CONNECTIVE TISSUE DISORDERS","MUSCULAR WEAKNESS","Y","count","quantity",2,157,3,1,"_NULL_","_NULL_"
"Xanomeline Low Dose","MUSCULOSKELETAL AND CONNECTIVE TISSUE DISORDERS","MUSCULAR WEAKNESS","Y","countdistinct","USUBJID",1,157,3,2,"_NULL_","_NULL_"
"Xanomeline Low Dose","MUSCULOSKELETAL AND CONNECTIVE TISSUE DISORDERS","SHOULDER PAIN","Y","count","quantity",2,160,3,1,"_NULL_","_NULL_"
"Xanomeline Low Dose","MUSCULOSKELETAL AND CONNECTIVE TISSUE DISORDERS","SHOULDER PAIN","Y","countdistinct","USUBJID",2,160,3,2,"_NULL_","_NULL_"
"Xanomeline Low Dose","NEOPLASMS BENIGN, MALIGNANT AND UNSPECIFIED (INCL CYSTS AND POLYPS)","_ALL_","Y","count","quantity",3,161,3,1,"_NULL_","_NULL_"
"Xanomeline Low Dose","NEOPLASMS BENIGN, MALIGNANT AND UNSPECIFIED (INCL CYSTS AND POLYPS)","_ALL_","Y","countdistinct","USUBJID",2,161,3,2,"_NULL_","_NULL_"
"Xanomeline Low Dose","NEOPLASMS BENIGN, MALIGNANT AND UNSPECIFIED (INCL CYSTS AND POLYPS)","COLON CANCER","Y","count","quantity",1,162,3,1,"_NULL_","_NULL_"
"Xanomeline Low Dose","NEOPLASMS BENIGN, MALIGNANT AND UNSPECIFIED (INCL CYSTS AND POLYPS)","COLON CANCER","Y","countdistinct","USUBJID",1,162,3,2,"_NULL_","_NULL_"
"Xanomeline Low Dose","NEOPLASMS BENIGN, MALIGNANT AND UNSPECIFIED (INCL CYSTS AND POLYPS)","MALIGNANT FIBROUS HISTIOCYTOMA","Y","count","quantity",2,163,3,1,"_NULL_","_NULL_"
"Xanomeline Low Dose","NEOPLASMS BENIGN, MALIGNANT AND UNSPECIFIED (INCL CYSTS AND POLYPS)","MALIGNANT FIBROUS HISTIOCYTOMA","Y","countdistinct","USUBJID",1,163,3,2,"_NULL_","_NULL_"
"Xanomeline Low Dose","NERVOUS SYSTEM DISORDERS","_ALL_","Y","count","quantity",40,165,3,1,"_NULL_","_NULL_"
"Xanomeline Low Dose","NERVOUS SYSTEM DISORDERS","_ALL_","Y","countdistinct","USUBJID",20,165,3,2,"_NULL_","_NULL_"
"Xanomeline Low Dose","NERVOUS SYSTEM DISORDERS","BALANCE DISORDER","Y","count","quantity",3,167,3,1,"_NULL_","_NULL_"
"Xanomeline Low Dose","NERVOUS SYSTEM DISORDERS","BALANCE DISORDER","Y","countdistinct","USUBJID",1,167,3,2,"_NULL_","_NULL_"
"Xanomeline Low Dose","NERVOUS SYSTEM DISORDERS","COMPLEX PARTIAL SEIZURES","Y","count","quantity",1,170,3,1,"_NULL_","_NULL_"
"Xanomeline Low Dose","NERVOUS SYSTEM DISORDERS","COMPLEX PARTIAL SEIZURES","Y","countdistinct","USUBJID",1,170,3,2,"_NULL_","_NULL_"
"Xanomeline Low Dose","NERVOUS SYSTEM DISORDERS","COORDINATION ABNORMAL","Y","count","quantity",1,171,3,1,"_NULL_","_NULL_"
"Xanomeline Low Dose","NERVOUS SYSTEM DISORDERS","COORDINATION ABNORMAL","Y","countdistinct","USUBJID",1,171,3,2,"_NULL_","_NULL_"
"Xanomeline Low Dose","NERVOUS SYSTEM DISORDERS","DIZZINESS","Y","count","quantity",13,172,3,1,"_NULL_","_NULL_"
"Xanomeline Low Dose","NERVOUS SYSTEM DISORDERS","DIZZINESS","Y","countdistinct","USUBJID",8,172,3,2,"_NULL_","_NULL_"
"Xanomeline Low Dose","NERVOUS SYSTEM DISORDERS","HEADACHE","Y","count","quantity",4,173,3,1,"_NULL_","_NULL_"
"Xanomeline Low Dose","NERVOUS SYSTEM DISORDERS","HEADACHE","Y","countdistinct","USUBJID",3,173,3,2,"_NULL_","_NULL_"
"Xanomeline Low Dose","NERVOUS SYSTEM DISORDERS","HEMIANOPIA HOMONYMOUS","Y","count","quantity",1,174,3,1,"_NULL_","_NULL_"
"Xanomeline Low Dose","NERVOUS SYSTEM DISORDERS","HEMIANOPIA HOMONYMOUS","Y","countdistinct","USUBJID",1,174,3,2,"_NULL_","_NULL_"
"Xanomeline Low Dose","NERVOUS SYSTEM DISORDERS","LETHARGY","Y","count","quantity",1,176,3,1,"_NULL_","_NULL_"
"Xanomeline Low Dose","NERVOUS SYSTEM DISORDERS","LETHARGY","Y","countdistinct","USUBJID",1,176,3,2,"_NULL_","_NULL_"
"Xanomeline Low Dose","NERVOUS SYSTEM DISORDERS","PARAESTHESIA ORAL","Y","count","quantity",1,178,3,1,"_NULL_","_NULL_"
"Xanomeline Low Dose","NERVOUS SYSTEM DISORDERS","PARAESTHESIA ORAL","Y","countdistinct","USUBJID",1,178,3,2,"_NULL_","_NULL_"
"Xanomeline Low Dose","NERVOUS SYSTEM DISORDERS","SOMNOLENCE","Y","count","quantity",5,183,3,1,"_NULL_","_NULL_"
"Xanomeline Low Dose","NERVOUS SYSTEM DISORDERS","SOMNOLENCE","Y","countdistinct","USUBJID",3,183,3,2,"_NULL_","_NULL_"
"Xanomeline Low Dose","NERVOUS SYSTEM DISORDERS","STUPOR","Y","count","quantity",1,184,3,1,"_NULL_","_NULL_"
"Xanomeline Low Dose","NERVOUS SYSTEM DISORDERS","STUPOR","Y","countdistinct","USUBJID",1,184,3,2,"_NULL_","_NULL_"
"Xanomeline Low Dose","NERVOUS SYSTEM DISORDERS","SYNCOPE","Y","count","quantity",6,185,3,1,"_NULL_","_NULL_"
"Xanomeline Low Dose","NERVOUS SYSTEM DISORDERS","SYNCOPE","Y","countdistinct","USUBJID",4,185,3,2,"_NULL_","_NULL_"
"Xanomeline Low Dose","NERVOUS SYSTEM DISORDERS","TRANSIENT ISCHAEMIC ATTACK","Y","count","quantity",3,187,3,1,"_NULL_","_NULL_"
"Xanomeline Low Dose","NERVOUS SYSTEM DISORDERS","TRANSIENT ISCHAEMIC ATTACK","Y","countdistinct","USUBJID",2,187,3,2,"_NULL_","_NULL_"
"Xanomeline Low Dose","PSYCHIATRIC DISORDERS","_ALL_","Y","count","quantity",14,188,3,1,"_NULL_","_NULL_"
"Xanomeline Low Dose","PSYCHIATRIC DISORDERS","_ALL_","Y","countdistinct","USUBJID",10,188,3,2,"_NULL_","_NULL_"
"Xanomeline Low Dose","PSYCHIATRIC DISORDERS","AGITATION","Y","count","quantity",2,189,3,1,"_NULL_","_NULL_"
"Xanomeline Low Dose","PSYCHIATRIC DISORDERS","AGITATION","Y","countdistinct","USUBJID",2,189,3,2,"_NULL_","_NULL_"
"Xanomeline Low Dose","PSYCHIATRIC DISORDERS","ANXIETY","Y","count","quantity",4,190,3,1,"_NULL_","_NULL_"
"Xanomeline Low Dose","PSYCHIATRIC DISORDERS","ANXIETY","Y","countdistinct","USUBJID",3,190,3,2,"_NULL_","_NULL_"
"Xanomeline Low Dose","PSYCHIATRIC DISORDERS","CONFUSIONAL STATE","Y","count","quantity",3,192,3,1,"_NULL_","_NULL_"
"Xanomeline Low Dose","PSYCHIATRIC DISORDERS","CONFUSIONAL STATE","Y","countdistinct","USUBJID",3,192,3,2,"_NULL_","_NULL_"
"Xanomeline Low Dose","PSYCHIATRIC DISORDERS","DEPRESSED MOOD","Y","count","quantity",2,195,3,1,"_NULL_","_NULL_"
"Xanomeline Low Dose","PSYCHIATRIC DISORDERS","DEPRESSED MOOD","Y","countdistinct","USUBJID",1,195,3,2,"_NULL_","_NULL_"
"Xanomeline Low Dose","PSYCHIATRIC DISORDERS","IRRITABILITY","Y","count","quantity",1,200,3,1,"_NULL_","_NULL_"
"Xanomeline Low Dose","PSYCHIATRIC DISORDERS","IRRITABILITY","Y","countdistinct","USUBJID",1,200,3,2,"_NULL_","_NULL_"
"Xanomeline Low Dose","PSYCHIATRIC DISORDERS","RESTLESSNESS","Y","count","quantity",2,204,3,1,"_NULL_","_NULL_"
"Xanomeline Low Dose","PSYCHIATRIC DISORDERS","RESTLESSNESS","Y","countdistinct","USUBJID",1,204,3,2,"_NULL_","_NULL_"
"Xanomeline Low Dose","RENAL AND URINARY DISORDERS","_ALL_","Y","count","quantity",4,205,3,1,"_NULL_","_NULL_"
"Xanomeline Low Dose","RENAL AND URINARY DISORDERS","_ALL_","Y","countdistinct","USUBJID",4,205,3,2,"_NULL_","_NULL_"
"Xanomeline Low Dose","RENAL AND URINARY DISORDERS","DYSURIA","Y","count","quantity",1,207,3,1,"_NULL_","_NULL_"
"Xanomeline Low Dose","RENAL AND URINARY DISORDERS","DYSURIA","Y","countdistinct","USUBJID",1,207,3,2,"_NULL_","_NULL_"
"Xanomeline Low Dose","RENAL AND URINARY DISORDERS","ENURESIS","Y","count","quantity",1,208,3,1,"_NULL_","_NULL_"
"Xanomeline Low Dose","RENAL AND URINARY DISORDERS","ENURESIS","Y","countdistinct","USUBJID",1,208,3,2,"_NULL_","_NULL_"
"Xanomeline Low Dose","RENAL AND URINARY DISORDERS","INCONTINENCE","Y","count","quantity",1,209,3,1,"_NULL_","_NULL_"
"Xanomeline Low Dose","RENAL AND URINARY DISORDERS","INCONTINENCE","Y","countdistinct","USUBJID",1,209,3,2,"_NULL_","_NULL_"
"Xanomeline Low Dose","RENAL AND URINARY DISORDERS","MICTURITION URGENCY","Y","count","quantity",1,210,3,1,"_NULL_","_NULL_"
"Xanomeline Low Dose","RENAL AND URINARY DISORDERS","MICTURITION URGENCY","Y","countdistinct","USUBJID",1,210,3,2,"_NULL_","_NULL_"
"Xanomeline Low Dose","RESPIRATORY, THORACIC AND MEDIASTINAL DISORDERS","_ALL_","Y","count","quantity",16,216,3,1,"_NULL_","_NULL_"
"Xanomeline Low Dose","RESPIRATORY, THORACIC AND MEDIASTINAL DISORDERS","_ALL_","Y","countdistinct","USUBJID",10,216,3,2,"_NULL_","_NULL_"
"Xanomeline Low Dose","RESPIRATORY, THORACIC AND MEDIASTINAL DISORDERS","COUGH","Y","count","quantity",9,218,3,1,"_NULL_","_NULL_"
"Xanomeline Low Dose","RESPIRATORY, THORACIC AND MEDIASTINAL DISORDERS","COUGH","Y","countdistinct","USUBJID",6,218,3,2,"_NULL_","_NULL_"
"Xanomeline Low Dose","RESPIRATORY, THORACIC AND MEDIASTINAL DISORDERS","DYSPHONIA","Y","count","quantity",1,219,3,1,"_NULL_","_NULL_"
"Xanomeline Low Dose","RESPIRATORY, THORACIC AND MEDIASTINAL DISORDERS","DYSPHONIA","Y","countdistinct","USUBJID",1,219,3,2,"_NULL_","_NULL_"
"Xanomeline Low Dose","RESPIRATORY, THORACIC AND MEDIASTINAL DISORDERS","DYSPNOEA","Y","count","quantity",1,220,3,1,"_NULL_","_NULL_"
"Xanomeline Low Dose","RESPIRATORY, THORACIC AND MEDIASTINAL DISORDERS","DYSPNOEA","Y","countdistinct","USUBJID",1,220,3,2,"_NULL_","_NULL_"
"Xanomeline Low Dose","RESPIRATORY, THORACIC AND MEDIASTINAL DISORDERS","EPISTAXIS","Y","count","quantity",1,222,3,1,"_NULL_","_NULL_"
"Xanomeline Low Dose","RESPIRATORY, THORACIC AND MEDIASTINAL DISORDERS","EPISTAXIS","Y","countdistinct","USUBJID",1,222,3,2,"_NULL_","_NULL_"
"Xanomeline Low Dose","RESPIRATORY, THORACIC AND MEDIASTINAL DISORDERS","NASAL CONGESTION","Y","count","quantity",1,224,3,1,"_NULL_","_NULL_"
"Xanomeline Low Dose","RESPIRATORY, THORACIC AND MEDIASTINAL DISORDERS","NASAL CONGESTION","Y","countdistinct","USUBJID",1,224,3,2,"_NULL_","_NULL_"
"Xanomeline Low Dose","RESPIRATORY, THORACIC AND MEDIASTINAL DISORDERS","PHARYNGOLARYNGEAL PAIN","Y","count","quantity",1,226,3,1,"_NULL_","_NULL_"
"Xanomeline Low Dose","RESPIRATORY, THORACIC AND MEDIASTINAL DISORDERS","PHARYNGOLARYNGEAL PAIN","Y","countdistinct","USUBJID",1,226,3,2,"_NULL_","_NULL_"
"Xanomeline Low Dose","RESPIRATORY, THORACIC AND MEDIASTINAL DISORDERS","RHINORRHOEA","Y","count","quantity",2,231,3,1,"_NULL_","_NULL_"
"Xanomeline Low Dose","RESPIRATORY, THORACIC AND MEDIASTINAL DISORDERS","RHINORRHOEA","Y","countdistinct","USUBJID",1,231,3,2,"_NULL_","_NULL_"
"Xanomeline Low Dose","SKIN AND SUBCUTANEOUS TISSUE DISORDERS","_ALL_","Y","count","quantity",118,232,3,1,"_NULL_","_NULL_"
"Xanomeline Low Dose","SKIN AND SUBCUTANEOUS TISSUE DISORDERS","_ALL_","Y","countdistinct","USUBJID",42,232,3,2,"_NULL_","_NULL_"
"Xanomeline Low Dose","SKIN AND SUBCUTANEOUS TISSUE DISORDERS","BLISTER","Y","count","quantity",8,235,3,1,"_NULL_","_NULL_"
"Xanomeline Low Dose","SKIN AND SUBCUTANEOUS TISSUE DISORDERS","BLISTER","Y","countdistinct","USUBJID",5,235,3,2,"_NULL_","_NULL_"
"Xanomeline Low Dose","SKIN AND SUBCUTANEOUS TISSUE DISORDERS","DERMATITIS CONTACT","Y","count","quantity",2,238,3,1,"_NULL_","_NULL_"
"Xanomeline Low Dose","SKIN AND SUBCUTANEOUS TISSUE DISORDERS","DERMATITIS CONTACT","Y","countdistinct","USUBJID",1,238,3,2,"_NULL_","_NULL_"
"Xanomeline Low Dose","SKIN AND SUBCUTANEOUS TISSUE DISORDERS","ERYTHEMA","Y","count","quantity",24,240,3,1,"_NULL_","_NULL_"
"Xanomeline Low Dose","SKIN AND SUBCUTANEOUS TISSUE DISORDERS","ERYTHEMA","Y","countdistinct","USUBJID",15,240,3,2,"_NULL_","_NULL_"
"Xanomeline Low Dose","SKIN AND SUBCUTANEOUS TISSUE DISORDERS","HYPERHIDROSIS","Y","count","quantity",5,241,3,1,"_NULL_","_NULL_"
"Xanomeline Low Dose","SKIN AND SUBCUTANEOUS TISSUE DISORDERS","HYPERHIDROSIS","Y","countdistinct","USUBJID",4,241,3,2,"_NULL_","_NULL_"
"Xanomeline Low Dose","SKIN AND SUBCUTANEOUS TISSUE DISORDERS","PRURITUS","Y","count","quantity",35,242,3,1,"_NULL_","_NULL_"
"Xanomeline Low Dose","SKIN AND SUBCUTANEOUS TISSUE DISORDERS","PRURITUS","Y","countdistinct","USUBJID",23,242,3,2,"_NULL_","_NULL_"
"Xanomeline Low Dose","SKIN AND SUBCUTANEOUS TISSUE DISORDERS","PRURITUS GENERALISED","Y","count","quantity",4,243,3,1,"_NULL_","_NULL_"
"Xanomeline Low Dose","SKIN AND SUBCUTANEOUS TISSUE DISORDERS","PRURITUS GENERALISED","Y","countdistinct","USUBJID",1,243,3,2,"_NULL_","_NULL_"
"Xanomeline Low Dose","SKIN AND SUBCUTANEOUS TISSUE DISORDERS","RASH","Y","count","quantity",18,244,3,1,"_NULL_","_NULL_"
"Xanomeline Low Dose","SKIN AND SUBCUTANEOUS TISSUE DISORDERS","RASH","Y","countdistinct","USUBJID",13,244,3,2,"_NULL_","_NULL_"
"Xanomeline Low Dose","SKIN AND SUBCUTANEOUS TISSUE DISORDERS","RASH ERYTHEMATOUS","Y","count","quantity",2,245,3,1,"_NULL_","_NULL_"
"Xanomeline Low Dose","SKIN AND SUBCUTANEOUS TISSUE DISORDERS","RASH ERYTHEMATOUS","Y","countdistinct","USUBJID",2,245,3,2,"_NULL_","_NULL_"
"Xanomeline Low Dose","SKIN AND SUBCUTANEOUS TISSUE DISORDERS","RASH PRURITIC","Y","count","quantity",2,248,3,1,"_NULL_","_NULL_"
"Xanomeline Low Dose","SKIN AND SUBCUTANEOUS TISSUE DISORDERS","RASH PRURITIC","Y","countdistinct","USUBJID",1,248,3,2,"_NULL_","_NULL_"
"Xanomeline Low Dose","SKIN AND SUBCUTANEOUS TISSUE DISORDERS","SKIN EXFOLIATION","Y","count","quantity",2,249,3,1,"_NULL_","_NULL_"
"Xanomeline Low Dose","SKIN AND SUBCUTANEOUS TISSUE DISORDERS","SKIN EXFOLIATION","Y","countdistinct","USUBJID",1,249,3,2,"_NULL_","_NULL_"
"Xanomeline Low Dose","SKIN AND SUBCUTANEOUS TISSUE DISORDERS","SKIN IRRITATION","Y","count","quantity",13,250,3,1,"_NULL_","_NULL_"
"Xanomeline Low Dose","SKIN AND SUBCUTANEOUS TISSUE DISORDERS","SKIN IRRITATION","Y","countdistinct","USUBJID",6,250,3,2,"_NULL_","_NULL_"
"Xanomeline Low Dose","SKIN AND SUBCUTANEOUS TISSUE DISORDERS","URTICARIA","Y","count","quantity",3,253,3,1,"_NULL_","_NULL_"
"Xanomeline Low Dose","SKIN AND SUBCUTANEOUS TISSUE DISORDERS","URTICARIA","Y","countdistinct","USUBJID",1,253,3,2,"_NULL_","_NULL_"
"Xanomeline Low Dose","SURGICAL AND MEDICAL PROCEDURES","_ALL_","Y","count","quantity",1,256,3,1,"_NULL_","_NULL_"
"Xanomeline Low Dose","SURGICAL AND MEDICAL PROCEDURES","_ALL_","Y","countdistinct","USUBJID",1,256,3,2,"_NULL_","_NULL_"
"Xanomeline Low Dose","SURGICAL AND MEDICAL PROCEDURES","CATARACT OPERATION","Y","count","quantity",1,258,3,1,"_NULL_","_NULL_"
"Xanomeline Low Dose","SURGICAL AND MEDICAL PROCEDURES","CATARACT OPERATION","Y","countdistinct","USUBJID",1,258,3,2,"_NULL_","_NULL_"
"Xanomeline Low Dose","VASCULAR DISORDERS","_ALL_","Y","count","quantity",3,261,3,1,"_NULL_","_NULL_"
"Xanomeline Low Dose","VASCULAR DISORDERS","_ALL_","Y","countdistinct","USUBJID",3,261,3,2,"_NULL_","_NULL_"
"Xanomeline Low Dose","VASCULAR DISORDERS","HOT FLUSH","Y","count","quantity",1,262,3,1,"_NULL_","_NULL_"
"Xanomeline Low Dose","VASCULAR DISORDERS","HOT FLUSH","Y","countdistinct","USUBJID",1,262,3,2,"_NULL_","_NULL_"
"Xanomeline Low Dose","VASCULAR DISORDERS","HYPERTENSION","Y","count","quantity",1,263,3,1,"_NULL_","_NULL_"
"Xanomeline Low Dose","VASCULAR DISORDERS","HYPERTENSION","Y","countdistinct","USUBJID",1,263,3,2,"_NULL_","_NULL_"
"Xanomeline Low Dose","VASCULAR DISORDERS","HYPOTENSION","Y","count","quantity",1,264,3,1,"_NULL_","_NULL_"
"Xanomeline Low Dose","VASCULAR DISORDERS","HYPOTENSION","Y","countdistinct","USUBJID",1,264,3,2,"_NULL_","_NULL_"
"_ALL_","_ALL_","_ALL_","Y","count","quantity",1191,1,4,1,"_NULL_","_NULL_"
"_ALL_","_ALL_","_ALL_","Y","countdistinct","USUBJID",225,1,4,2,"_NULL_","_NULL_"
"_ALL_","CARDIAC DISORDERS","_ALL_","Y","count","quantity",91,2,4,1,"_NULL_","_NULL_"
"_ALL_","CARDIAC DISORDERS","_ALL_","Y","countdistinct","USUBJID",44,2,4,2,"_NULL_","_NULL_"
"_ALL_","CARDIAC DISORDERS","ATRIAL FIBRILLATION","Y","count","quantity",7,3,4,1,"_NULL_","_NULL_"
"_ALL_","CARDIAC DISORDERS","ATRIAL FIBRILLATION","Y","countdistinct","USUBJID",5,3,4,2,"_NULL_","_NULL_"
"_ALL_","CARDIAC DISORDERS","ATRIAL FLUTTER","Y","count","quantity",3,4,4,1,"_NULL_","_NULL_"
"_ALL_","CARDIAC DISORDERS","ATRIAL FLUTTER","Y","countdistinct","USUBJID",2,4,4,2,"_NULL_","_NULL_"
"_ALL_","CARDIAC DISORDERS","ATRIAL HYPERTROPHY","Y","count","quantity",2,5,4,1,"_NULL_","_NULL_"
"_ALL_","CARDIAC DISORDERS","ATRIAL HYPERTROPHY","Y","countdistinct","USUBJID",1,5,4,2,"_NULL_","_NULL_"
"_ALL_","CARDIAC DISORDERS","ATRIOVENTRICULAR BLOCK FIRST DEGREE","Y","count","quantity",2,6,4,1,"_NULL_","_NULL_"
"_ALL_","CARDIAC DISORDERS","ATRIOVENTRICULAR BLOCK FIRST DEGREE","Y","countdistinct","USUBJID",2,6,4,2,"_NULL_","_NULL_"
"_ALL_","CARDIAC DISORDERS","ATRIOVENTRICULAR BLOCK SECOND DEGREE","Y","count","quantity",6,7,4,1,"_NULL_","_NULL_"
"_ALL_","CARDIAC DISORDERS","ATRIOVENTRICULAR BLOCK SECOND DEGREE","Y","countdistinct","USUBJID",5,7,4,2,"_NULL_","_NULL_"
"_ALL_","CARDIAC DISORDERS","BRADYCARDIA","Y","count","quantity",4,8,4,1,"_NULL_","_NULL_"
"_ALL_","CARDIAC DISORDERS","BRADYCARDIA","Y","countdistinct","USUBJID",1,8,4,2,"_NULL_","_NULL_"
"_ALL_","CARDIAC DISORDERS","BUNDLE BRANCH BLOCK LEFT","Y","count","quantity",1,9,4,1,"_NULL_","_NULL_"
"_ALL_","CARDIAC DISORDERS","BUNDLE BRANCH BLOCK LEFT","Y","countdistinct","USUBJID",1,9,4,2,"_NULL_","_NULL_"
"_ALL_","CARDIAC DISORDERS","BUNDLE BRANCH BLOCK RIGHT","Y","count","quantity",3,10,4,1,"_NULL_","_NULL_"
"_ALL_","CARDIAC DISORDERS","BUNDLE BRANCH BLOCK RIGHT","Y","countdistinct","USUBJID",2,10,4,2,"_NULL_","_NULL_"
"_ALL_","CARDIAC DISORDERS","CARDIAC DISORDER","Y","count","quantity",1,11,4,1,"_NULL_","_NULL_"
"_ALL_","CARDIAC DISORDERS","CARDIAC DISORDER","Y","countdistinct","USUBJID",1,11,4,2,"_NULL_","_NULL_"
"_ALL_","CARDIAC DISORDERS","CARDIAC FAILURE CONGESTIVE","Y","count","quantity",1,12,4,1,"_NULL_","_NULL_"
"_ALL_","CARDIAC DISORDERS","CARDIAC FAILURE CONGESTIVE","Y","countdistinct","USUBJID",1,12,4,2,"_NULL_","_NULL_"
"_ALL_","CARDIAC DISORDERS","MYOCARDIAL INFARCTION","Y","count","quantity",16,13,4,1,"_NULL_","_NULL_"
"_ALL_","CARDIAC DISORDERS","MYOCARDIAL INFARCTION","Y","countdistinct","USUBJID",10,13,4,2,"_NULL_","_NULL_"
"_ALL_","CARDIAC DISORDERS","PALPITATIONS","Y","count","quantity",2,14,4,1,"_NULL_","_NULL_"
"_ALL_","CARDIAC DISORDERS","PALPITATIONS","Y","countdistinct","USUBJID",2,14,4,2,"_NULL_","_NULL_"
"_ALL_","CARDIAC DISORDERS","SINUS ARRHYTHMIA","Y","count","quantity",2,15,4,1,"_NULL_","_NULL_"
"_ALL_","CARDIAC DISORDERS","SINUS ARRHYTHMIA","Y","countdistinct","USUBJID",1,15,4,2,"_NULL_","_NULL_"
"_ALL_","CARDIAC DISORDERS","SINUS BRADYCARDIA","Y","count","quantity",24,16,4,1,"_NULL_","_NULL_"
"_ALL_","CARDIAC DISORDERS","SINUS BRADYCARDIA","Y","countdistinct","USUBJID",17,16,4,2,"_NULL_","_NULL_"
"_ALL_","CARDIAC DISORDERS","SUPRAVENTRICULAR EXTRASYSTOLES","Y","count","quantity",5,17,4,1,"_NULL_","_NULL_"
"_ALL_","CARDIAC DISORDERS","SUPRAVENTRICULAR EXTRASYSTOLES","Y","countdistinct","USUBJID",3,17,4,2,"_NULL_","_NULL_"
"_ALL_","CARDIAC DISORDERS","SUPRAVENTRICULAR TACHYCARDIA","Y","count","quantity",2,18,4,1,"_NULL_","_NULL_"
"_ALL_","CARDIAC DISORDERS","SUPRAVENTRICULAR TACHYCARDIA","Y","countdistinct","USUBJID",1,18,4,2,"_NULL_","_NULL_"
"_ALL_","CARDIAC DISORDERS","TACHYCARDIA","Y","count","quantity",2,19,4,1,"_NULL_","_NULL_"
"_ALL_","CARDIAC DISORDERS","TACHYCARDIA","Y","countdistinct","USUBJID",1,19,4,2,"_NULL_","_NULL_"
"_ALL_","CARDIAC DISORDERS","VENTRICULAR EXTRASYSTOLES","Y","count","quantity",5,20,4,1,"_NULL_","_NULL_"
"_ALL_","CARDIAC DISORDERS","VENTRICULAR EXTRASYSTOLES","Y","countdistinct","USUBJID",3,20,4,2,"_NULL_","_NULL_"
"_ALL_","CARDIAC DISORDERS","VENTRICULAR HYPERTROPHY","Y","count","quantity",1,21,4,1,"_NULL_","_NULL_"
"_ALL_","CARDIAC DISORDERS","VENTRICULAR HYPERTROPHY","Y","countdistinct","USUBJID",1,21,4,2,"_NULL_","_NULL_"
"_ALL_","CARDIAC DISORDERS","WOLFF-PARKINSON-WHITE SYNDROME","Y","count","quantity",2,22,4,1,"_NULL_","_NULL_"
"_ALL_","CARDIAC DISORDERS","WOLFF-PARKINSON-WHITE SYNDROME","Y","countdistinct","USUBJID",1,22,4,2,"_NULL_","_NULL_"
"_ALL_","CONGENITAL, FAMILIAL AND GENETIC DISORDERS","_ALL_","Y","count","quantity",3,23,4,1,"_NULL_","_NULL_"
"_ALL_","CONGENITAL, FAMILIAL AND GENETIC DISORDERS","_ALL_","Y","countdistinct","USUBJID",3,23,4,2,"_NULL_","_NULL_"
"_ALL_","CONGENITAL, FAMILIAL AND GENETIC DISORDERS","VENTRICULAR SEPTAL DEFECT","Y","count","quantity",3,24,4,1,"_NULL_","_NULL_"
"_ALL_","CONGENITAL, FAMILIAL AND GENETIC DISORDERS","VENTRICULAR SEPTAL DEFECT","Y","countdistinct","USUBJID",3,24,4,2,"_NULL_","_NULL_"
"_ALL_","EAR AND LABYRINTH DISORDERS","_ALL_","Y","count","quantity",6,25,4,1,"_NULL_","_NULL_"
"_ALL_","EAR AND LABYRINTH DISORDERS","_ALL_","Y","countdistinct","USUBJID",4,25,4,2,"_NULL_","_NULL_"
"_ALL_","EAR AND LABYRINTH DISORDERS","CERUMEN IMPACTION","Y","count","quantity",1,26,4,1,"_NULL_","_NULL_"
"_ALL_","EAR AND LABYRINTH DISORDERS","CERUMEN IMPACTION","Y","countdistinct","USUBJID",1,26,4,2,"_NULL_","_NULL_"
"_ALL_","EAR AND LABYRINTH DISORDERS","EAR PAIN","Y","count","quantity",2,27,4,1,"_NULL_","_NULL_"
"_ALL_","EAR AND LABYRINTH DISORDERS","EAR PAIN","Y","countdistinct","USUBJID",1,27,4,2,"_NULL_","_NULL_"
"_ALL_","EAR AND LABYRINTH DISORDERS","TINNITUS","Y","count","quantity",1,28,4,1,"_NULL_","_NULL_"
"_ALL_","EAR AND LABYRINTH DISORDERS","TINNITUS","Y","countdistinct","USUBJID",1,28,4,2,"_NULL_","_NULL_"
"_ALL_","EAR AND LABYRINTH DISORDERS","VERTIGO","Y","count","quantity",2,29,4,1,"_NULL_","_NULL_"
"_ALL_","EAR AND LABYRINTH DISORDERS","VERTIGO","Y","countdistinct","USUBJID",2,29,4,2,"_NULL_","_NULL_"
"_ALL_","EYE DISORDERS","_ALL_","Y","count","quantity",12,30,4,1,"_NULL_","_NULL_"
"_ALL_","EYE DISORDERS","_ALL_","Y","countdistinct","USUBJID",7,30,4,2,"_NULL_","_NULL_"
"_ALL_","EYE DISORDERS","CONJUNCTIVAL HAEMORRHAGE","Y","count","quantity",1,31,4,1,"_NULL_","_NULL_"
"_ALL_","EYE DISORDERS","CONJUNCTIVAL HAEMORRHAGE","Y","countdistinct","USUBJID",1,31,4,2,"_NULL_","_NULL_"
"_ALL_","EYE DISORDERS","CONJUNCTIVITIS","Y","count","quantity",4,32,4,1,"_NULL_","_NULL_"
"_ALL_","EYE DISORDERS","CONJUNCTIVITIS","Y","countdistinct","USUBJID",2,32,4,2,"_NULL_","_NULL_"
"_ALL_","EYE DISORDERS","EYE ALLERGY","Y","count","quantity",1,33,4,1,"_NULL_","_NULL_"
"_ALL_","EYE DISORDERS","EYE ALLERGY","Y","countdistinct","USUBJID",1,33,4,2,"_NULL_","_NULL_"
"_ALL_","EYE DISORDERS","EYE PRURITUS","Y","count","quantity",1,34,4,1,"_NULL_","_NULL_"
"_ALL_","EYE DISORDERS","EYE PRURITUS","Y","countdistinct","USUBJID",1,34,4,2,"_NULL_","_NULL_"
"_ALL_","EYE DISORDERS","EYE SWELLING","Y","count","quantity",1,35,4,1,"_NULL_","_NULL_"
"_ALL_","EYE DISORDERS","EYE SWELLING","Y","countdistinct","USUBJID",1,35,4,2,"_NULL_","_NULL_"
"_ALL_","EYE DISORDERS","GLAUCOMA","Y","count","quantity",1,36,4,1,"_NULL_","_NULL_"
"_ALL_","EYE DISORDERS","GLAUCOMA","Y","countdistinct","USUBJID",1,36,4,2,"_NULL_","_NULL_"
"_ALL_","EYE DISORDERS","VISION BLURRED","Y","count","quantity",3,37,4,1,"_NULL_","_NULL_"
"_ALL_","EYE DISORDERS","VISION BLURRED","Y","countdistinct","USUBJID",2,37,4,2,"_NULL_","_NULL_"
"_ALL_","GASTROINTESTINAL DISORDERS","_ALL_","Y","count","quantity",87,38,4,1,"_NULL_","_NULL_"
"_ALL_","GASTROINTESTINAL DISORDERS","_ALL_","Y","countdistinct","USUBJID",53,38,4,2,"_NULL_","_NULL_"
"_ALL_","GASTROINTESTINAL DISORDERS","ABDOMINAL DISCOMFORT","Y","count","quantity",1,39,4,1,"_NULL_","_NULL_"
"_ALL_","GASTROINTESTINAL DISORDERS","ABDOMINAL DISCOMFORT","Y","countdistinct","USUBJID",1,39,4,2,"_NULL_","_NULL_"
"_ALL_","GASTROINTESTINAL DISORDERS","ABDOMINAL PAIN","Y","count","quantity",6,40,4,1,"_NULL_","_NULL_"
"_ALL_","GASTROINTESTINAL DISORDERS","ABDOMINAL PAIN","Y","countdistinct","USUBJID",5,40,4,2,"_NULL_","_NULL_"
"_ALL_","GASTROINTESTINAL DISORDERS","CONSTIPATION","Y","count","quantity",1,41,4,1,"_NULL_","_NULL_"
"_ALL_","GASTROINTESTINAL DISORDERS","CONSTIPATION","Y","countdistinct","USUBJID",1,41,4,2,"_NULL_","_NULL_"
"_ALL_","GASTROINTESTINAL DISORDERS","DIARRHOEA","Y","count","quantity",21,42,4,1,"_NULL_","_NULL_"
"_ALL_","GASTROINTESTINAL DISORDERS","DIARRHOEA","Y","countdistinct","USUBJID",18,42,4,2,"_NULL_","_NULL_"
"_ALL_","GASTROINTESTINAL DISORDERS","DYSPEPSIA","Y","count","quantity",5,43,4,1,"_NULL_","_NULL_"
"_ALL_","GASTROINTESTINAL DISORDERS","DYSPEPSIA","Y","countdistinct","USUBJID",3,43,4,2,"_NULL_","_NULL_"
"_ALL_","GASTROINTESTINAL DISORDERS","DYSPHAGIA","Y","count","quantity",1,44,4,1,"_NULL_","_NULL_"
"_ALL_","GASTROINTESTINAL DISORDERS","DYSPHAGIA","Y","countdistinct","USUBJID",1,44,4,2,"_NULL_","_NULL_"
"_ALL_","GASTROINTESTINAL DISORDERS","FLATULENCE","Y","count","quantity",2,45,4,1,"_NULL_","_NULL_"
"_ALL_","GASTROINTESTINAL DISORDERS","FLATULENCE","Y","countdistinct","USUBJID",1,45,4,2,"_NULL_","_NULL_"
"_ALL_","GASTROINTESTINAL DISORDERS","GASTROINTESTINAL HAEMORRHAGE","Y","count","quantity",1,46,4,1,"_NULL_","_NULL_"
"_ALL_","GASTROINTESTINAL DISORDERS","GASTROINTESTINAL HAEMORRHAGE","Y","countdistinct","USUBJID",1,46,4,2,"_NULL_","_NULL_"
"_ALL_","GASTROINTESTINAL DISORDERS","GASTROOESOPHAGEAL REFLUX DISEASE","Y","count","quantity",1,47,4,1,"_NULL_","_NULL_"
"_ALL_","GASTROINTESTINAL DISORDERS","GASTROOESOPHAGEAL REFLUX DISEASE","Y","countdistinct","USUBJID",1,47,4,2,"_NULL_","_NULL_"
"_ALL_","GASTROINTESTINAL DISORDERS","GLOSSITIS","Y","count","quantity",1,48,4,1,"_NULL_","_NULL_"
"_ALL_","GASTROINTESTINAL DISORDERS","GLOSSITIS","Y","countdistinct","USUBJID",1,48,4,2,"_NULL_","_NULL_"
"_ALL_","GASTROINTESTINAL DISORDERS","HIATUS HERNIA","Y","count","quantity",2,49,4,1,"_NULL_","_NULL_"
"_ALL_","GASTROINTESTINAL DISORDERS","HIATUS HERNIA","Y","countdistinct","USUBJID",1,49,4,2,"_NULL_","_NULL_"
"_ALL_","GASTROINTESTINAL DISORDERS","NAUSEA","Y","count","quantity",21,50,4,1,"_NULL_","_NULL_"
"_ALL_","GASTROINTESTINAL DISORDERS","NAUSEA","Y","countdistinct","USUBJID",12,50,4,2,"_NULL_","_NULL_"
"_ALL_","GASTROINTESTINAL DISORDERS","RECTAL HAEMORRHAGE","Y","count","quantity",2,51,4,1,"_NULL_","_NULL_"
"_ALL_","GASTROINTESTINAL DISORDERS","RECTAL HAEMORRHAGE","Y","countdistinct","USUBJID",1,51,4,2,"_NULL_","_NULL_"
"_ALL_","GASTROINTESTINAL DISORDERS","SALIVARY HYPERSECRETION","Y","count","quantity",5,52,4,1,"_NULL_","_NULL_"
"_ALL_","GASTROINTESTINAL DISORDERS","SALIVARY HYPERSECRETION","Y","countdistinct","USUBJID",4,52,4,2,"_NULL_","_NULL_"
"_ALL_","GASTROINTESTINAL DISORDERS","STOMACH DISCOMFORT","Y","count","quantity",1,53,4,1,"_NULL_","_NULL_"
"_ALL_","GASTROINTESTINAL DISORDERS","STOMACH DISCOMFORT","Y","countdistinct","USUBJID",1,53,4,2,"_NULL_","_NULL_"
"_ALL_","GASTROINTESTINAL DISORDERS","VOMITING","Y","count","quantity",16,54,4,1,"_NULL_","_NULL_"
"_ALL_","GASTROINTESTINAL DISORDERS","VOMITING","Y","countdistinct","USUBJID",13,54,4,2,"_NULL_","_NULL_"
"_ALL_","GENERAL DISORDERS AND ADMINISTRATION SITE CONDITIONS","_ALL_","Y","count","quantity",292,55,4,1,"_NULL_","_NULL_"
"_ALL_","GENERAL DISORDERS AND ADMINISTRATION SITE CONDITIONS","_ALL_","Y","countdistinct","USUBJID",108,55,4,2,"_NULL_","_NULL_"
"_ALL_","GENERAL DISORDERS AND ADMINISTRATION SITE CONDITIONS","APPLICATION SITE BLEEDING","Y","count","quantity",1,56,4,1,"_NULL_","_NULL_"
"_ALL_","GENERAL DISORDERS AND ADMINISTRATION SITE CONDITIONS","APPLICATION SITE BLEEDING","Y","countdistinct","USUBJID",1,56,4,2,"_NULL_","_NULL_"
"_ALL_","GENERAL DISORDERS AND ADMINISTRATION SITE CONDITIONS","APPLICATION SITE DERMATITIS","Y","count","quantity",36,57,4,1,"_NULL_","_NULL_"
"_ALL_","GENERAL DISORDERS AND ADMINISTRATION SITE CONDITIONS","APPLICATION SITE DERMATITIS","Y","countdistinct","USUBJID",21,57,4,2,"_NULL_","_NULL_"
"_ALL_","GENERAL DISORDERS AND ADMINISTRATION SITE CONDITIONS","APPLICATION SITE DESQUAMATION","Y","count","quantity",1,58,4,1,"_NULL_","_NULL_"
"_ALL_","GENERAL DISORDERS AND ADMINISTRATION SITE CONDITIONS","APPLICATION SITE DESQUAMATION","Y","countdistinct","USUBJID",1,58,4,2,"_NULL_","_NULL_"
"_ALL_","GENERAL DISORDERS AND ADMINISTRATION SITE CONDITIONS","APPLICATION SITE DISCHARGE","Y","count","quantity",1,59,4,1,"_NULL_","_NULL_"
"_ALL_","GENERAL DISORDERS AND ADMINISTRATION SITE CONDITIONS","APPLICATION SITE DISCHARGE","Y","countdistinct","USUBJID",1,59,4,2,"_NULL_","_NULL_"
"_ALL_","GENERAL DISORDERS AND ADMINISTRATION SITE CONDITIONS","APPLICATION SITE DISCOLOURATION","Y","count","quantity",1,60,4,1,"_NULL_","_NULL_"
"_ALL_","GENERAL DISORDERS AND ADMINISTRATION SITE CONDITIONS","APPLICATION SITE DISCOLOURATION","Y","countdistinct","USUBJID",1,60,4,2,"_NULL_","_NULL_"
"_ALL_","GENERAL DISORDERS AND ADMINISTRATION SITE CONDITIONS","APPLICATION SITE ERYTHEMA","Y","count","quantity",46,61,4,1,"_NULL_","_NULL_"
"_ALL_","GENERAL DISORDERS AND ADMINISTRATION SITE CONDITIONS","APPLICATION SITE ERYTHEMA","Y","countdistinct","USUBJID",30,61,4,2,"_NULL_","_NULL_"
"_ALL_","GENERAL DISORDERS AND ADMINISTRATION SITE CONDITIONS","APPLICATION SITE INDURATION","Y","count","quantity",1,62,4,1,"_NULL_","_NULL_"
"_ALL_","GENERAL DISORDERS AND ADMINISTRATION SITE CONDITIONS","APPLICATION SITE INDURATION","Y","countdistinct","USUBJID",1,62,4,2,"_NULL_","_NULL_"
"_ALL_","GENERAL DISORDERS AND ADMINISTRATION SITE CONDITIONS","APPLICATION SITE IRRITATION","Y","count","quantity",41,63,4,1,"_NULL_","_NULL_"
"_ALL_","GENERAL DISORDERS AND ADMINISTRATION SITE CONDITIONS","APPLICATION SITE IRRITATION","Y","countdistinct","USUBJID",21,63,4,2,"_NULL_","_NULL_"
"_ALL_","GENERAL DISORDERS AND ADMINISTRATION SITE CONDITIONS","APPLICATION SITE PAIN","Y","count","quantity",2,64,4,1,"_NULL_","_NULL_"
"_ALL_","GENERAL DISORDERS AND ADMINISTRATION SITE CONDITIONS","APPLICATION SITE PAIN","Y","countdistinct","USUBJID",2,64,4,2,"_NULL_","_NULL_"
"_ALL_","GENERAL DISORDERS AND ADMINISTRATION SITE CONDITIONS","APPLICATION SITE PERSPIRATION","Y","count","quantity",3,65,4,1,"_NULL_","_NULL_"
"_ALL_","GENERAL DISORDERS AND ADMINISTRATION SITE CONDITIONS","APPLICATION SITE PERSPIRATION","Y","countdistinct","USUBJID",2,65,4,2,"_NULL_","_NULL_"
"_ALL_","GENERAL DISORDERS AND ADMINISTRATION SITE CONDITIONS","APPLICATION SITE PRURITUS","Y","count","quantity",78,66,4,1,"_NULL_","_NULL_"
"_ALL_","GENERAL DISORDERS AND ADMINISTRATION SITE CONDITIONS","APPLICATION SITE PRURITUS","Y","countdistinct","USUBJID",50,66,4,2,"_NULL_","_NULL_"
"_ALL_","GENERAL DISORDERS AND ADMINISTRATION SITE CONDITIONS","APPLICATION SITE REACTION","Y","count","quantity",3,67,4,1,"_NULL_","_NULL_"
"_ALL_","GENERAL DISORDERS AND ADMINISTRATION SITE CONDITIONS","APPLICATION SITE REACTION","Y","countdistinct","USUBJID",2,67,4,2,"_NULL_","_NULL_"
"_ALL_","GENERAL DISORDERS AND ADMINISTRATION SITE CONDITIONS","APPLICATION SITE SWELLING","Y","count","quantity",4,68,4,1,"_NULL_","_NULL_"
"_ALL_","GENERAL DISORDERS AND ADMINISTRATION SITE CONDITIONS","APPLICATION SITE SWELLING","Y","countdistinct","USUBJID",3,68,4,2,"_NULL_","_NULL_"
"_ALL_","GENERAL DISORDERS AND ADMINISTRATION SITE CONDITIONS","APPLICATION SITE URTICARIA","Y","count","quantity",3,69,4,1,"_NULL_","_NULL_"
"_ALL_","GENERAL DISORDERS AND ADMINISTRATION SITE CONDITIONS","APPLICATION SITE URTICARIA","Y","countdistinct","USUBJID",3,69,4,2,"_NULL_","_NULL_"
"_ALL_","GENERAL DISORDERS AND ADMINISTRATION SITE CONDITIONS","APPLICATION SITE VESICLES","Y","count","quantity",13,70,4,1,"_NULL_","_NULL_"
"_ALL_","GENERAL DISORDERS AND ADMINISTRATION SITE CONDITIONS","APPLICATION SITE VESICLES","Y","countdistinct","USUBJID",11,70,4,2,"_NULL_","_NULL_"
"_ALL_","GENERAL DISORDERS AND ADMINISTRATION SITE CONDITIONS","APPLICATION SITE WARMTH","Y","count","quantity",2,71,4,1,"_NULL_","_NULL_"
"_ALL_","GENERAL DISORDERS AND ADMINISTRATION SITE CONDITIONS","APPLICATION SITE WARMTH","Y","countdistinct","USUBJID",1,71,4,2,"_NULL_","_NULL_"
"_ALL_","GENERAL DISORDERS AND ADMINISTRATION SITE CONDITIONS","ASTHENIA","Y","count","quantity",3,72,4,1,"_NULL_","_NULL_"
"_ALL_","GENERAL DISORDERS AND ADMINISTRATION SITE CONDITIONS","ASTHENIA","Y","countdistinct","USUBJID",2,72,4,2,"_NULL_","_NULL_"
"_ALL_","GENERAL DISORDERS AND ADMINISTRATION SITE CONDITIONS","CHEST DISCOMFORT","Y","count","quantity",2,73,4,1,"_NULL_","_NULL_"
"_ALL_","GENERAL DISORDERS AND ADMINISTRATION SITE CONDITIONS","CHEST DISCOMFORT","Y","countdistinct","USUBJID",2,73,4,2,"_NULL_","_NULL_"
"_ALL_","GENERAL DISORDERS AND ADMINISTRATION SITE CONDITIONS","CHEST PAIN","Y","count","quantity",2,74,4,1,"_NULL_","_NULL_"
"_ALL_","GENERAL DISORDERS AND ADMINISTRATION SITE CONDITIONS","CHEST PAIN","Y","countdistinct","USUBJID",2,74,4,2,"_NULL_","_NULL_"
"_ALL_","GENERAL DISORDERS AND ADMINISTRATION SITE CONDITIONS","CHILLS","Y","count","quantity",6,75,4,1,"_NULL_","_NULL_"
"_ALL_","GENERAL DISORDERS AND ADMINISTRATION SITE CONDITIONS","CHILLS","Y","countdistinct","USUBJID",3,75,4,2,"_NULL_","_NULL_"
"_ALL_","GENERAL DISORDERS AND ADMINISTRATION SITE CONDITIONS","CYST","Y","count","quantity",1,76,4,1,"_NULL_","_NULL_"
"_ALL_","GENERAL DISORDERS AND ADMINISTRATION SITE CONDITIONS","CYST","Y","countdistinct","USUBJID",1,76,4,2,"_NULL_","_NULL_"
"_ALL_","GENERAL DISORDERS AND ADMINISTRATION SITE CONDITIONS","FATIGUE","Y","count","quantity",12,77,4,1,"_NULL_","_NULL_"
"_ALL_","GENERAL DISORDERS AND ADMINISTRATION SITE CONDITIONS","FATIGUE","Y","countdistinct","USUBJID",11,77,4,2,"_NULL_","_NULL_"
"_ALL_","GENERAL DISORDERS AND ADMINISTRATION SITE CONDITIONS","FEELING ABNORMAL","Y","count","quantity",1,78,4,1,"_NULL_","_NULL_"
"_ALL_","GENERAL DISORDERS AND ADMINISTRATION SITE CONDITIONS","FEELING ABNORMAL","Y","countdistinct","USUBJID",1,78,4,2,"_NULL_","_NULL_"
"_ALL_","GENERAL DISORDERS AND ADMINISTRATION SITE CONDITIONS","FEELING COLD","Y","count","quantity",1,79,4,1,"_NULL_","_NULL_"
"_ALL_","GENERAL DISORDERS AND ADMINISTRATION SITE CONDITIONS","FEELING COLD","Y","countdistinct","USUBJID",1,79,4,2,"_NULL_","_NULL_"
"_ALL_","GENERAL DISORDERS AND ADMINISTRATION SITE CONDITIONS","INFLAMMATION","Y","count","quantity",1,80,4,1,"_NULL_","_NULL_"
"_ALL_","GENERAL DISORDERS AND ADMINISTRATION SITE CONDITIONS","INFLAMMATION","Y","countdistinct","USUBJID",1,80,4,2,"_NULL_","_NULL_"
"_ALL_","GENERAL DISORDERS AND ADMINISTRATION SITE CONDITIONS","MALAISE","Y","count","quantity",5,81,4,1,"_NULL_","_NULL_"
"_ALL_","GENERAL DISORDERS AND ADMINISTRATION SITE CONDITIONS","MALAISE","Y","countdistinct","USUBJID",3,81,4,2,"_NULL_","_NULL_"
"_ALL_","GENERAL DISORDERS AND ADMINISTRATION SITE CONDITIONS","OEDEMA","Y","count","quantity",2,82,4,1,"_NULL_","_NULL_"
"_ALL_","GENERAL DISORDERS AND ADMINISTRATION SITE CONDITIONS","OEDEMA","Y","countdistinct","USUBJID",2,82,4,2,"_NULL_","_NULL_"
"_ALL_","GENERAL DISORDERS AND ADMINISTRATION SITE CONDITIONS","OEDEMA PERIPHERAL","Y","count","quantity",9,83,4,1,"_NULL_","_NULL_"
"_ALL_","GENERAL DISORDERS AND ADMINISTRATION SITE CONDITIONS","OEDEMA PERIPHERAL","Y","countdistinct","USUBJID",5,83,4,2,"_NULL_","_NULL_"
"_ALL_","GENERAL DISORDERS AND ADMINISTRATION SITE CONDITIONS","PAIN","Y","count","quantity",3,84,4,1,"_NULL_","_NULL_"
"_ALL_","GENERAL DISORDERS AND ADMINISTRATION SITE CONDITIONS","PAIN","Y","countdistinct","USUBJID",2,84,4,2,"_NULL_","_NULL_"
"_ALL_","GENERAL DISORDERS AND ADMINISTRATION SITE CONDITIONS","PYREXIA","Y","count","quantity",3,85,4,1,"_NULL_","_NULL_"
"_ALL_","GENERAL DISORDERS AND ADMINISTRATION SITE CONDITIONS","PYREXIA","Y","countdistinct","USUBJID",3,85,4,2,"_NULL_","_NULL_"
"_ALL_","GENERAL DISORDERS AND ADMINISTRATION SITE CONDITIONS","SECRETION DISCHARGE","Y","count","quantity",2,86,4,1,"_NULL_","_NULL_"
"_ALL_","GENERAL DISORDERS AND ADMINISTRATION SITE CONDITIONS","SECRETION DISCHARGE","Y","countdistinct","USUBJID",1,86,4,2,"_NULL_","_NULL_"
"_ALL_","GENERAL DISORDERS AND ADMINISTRATION SITE CONDITIONS","SUDDEN DEATH","Y","count","quantity",1,87,4,1,"_NULL_","_NULL_"
"_ALL_","GENERAL DISORDERS AND ADMINISTRATION SITE CONDITIONS","SUDDEN DEATH","Y","countdistinct","USUBJID",1,87,4,2,"_NULL_","_NULL_"
"_ALL_","GENERAL DISORDERS AND ADMINISTRATION SITE CONDITIONS","SWELLING","Y","count","quantity",1,88,4,1,"_NULL_","_NULL_"
"_ALL_","GENERAL DISORDERS AND ADMINISTRATION SITE CONDITIONS","SWELLING","Y","countdistinct","USUBJID",1,88,4,2,"_NULL_","_NULL_"
"_ALL_","GENERAL DISORDERS AND ADMINISTRATION SITE CONDITIONS","ULCER","Y","count","quantity",1,89,4,1,"_NULL_","_NULL_"
"_ALL_","GENERAL DISORDERS AND ADMINISTRATION SITE CONDITIONS","ULCER","Y","countdistinct","USUBJID",1,89,4,2,"_NULL_","_NULL_"
"_ALL_","HEPATOBILIARY DISORDERS","_ALL_","Y","count","quantity",1,90,4,1,"_NULL_","_NULL_"
"_ALL_","HEPATOBILIARY DISORDERS","_ALL_","Y","countdistinct","USUBJID",1,90,4,2,"_NULL_","_NULL_"
"_ALL_","HEPATOBILIARY DISORDERS","HYPERBILIRUBINAEMIA","Y","count","quantity",1,91,4,1,"_NULL_","_NULL_"
"_ALL_","HEPATOBILIARY DISORDERS","HYPERBILIRUBINAEMIA","Y","countdistinct","USUBJID",1,91,4,2,"_NULL_","_NULL_"
"_ALL_","IMMUNE SYSTEM DISORDERS","_ALL_","Y","count","quantity",3,92,4,1,"_NULL_","_NULL_"
"_ALL_","IMMUNE SYSTEM DISORDERS","_ALL_","Y","countdistinct","USUBJID",2,92,4,2,"_NULL_","_NULL_"
"_ALL_","IMMUNE SYSTEM DISORDERS","HYPERSENSITIVITY","Y","count","quantity",2,93,4,1,"_NULL_","_NULL_"
"_ALL_","IMMUNE SYSTEM DISORDERS","HYPERSENSITIVITY","Y","countdistinct","USUBJID",1,93,4,2,"_NULL_","_NULL_"
"_ALL_","IMMUNE SYSTEM DISORDERS","SEASONAL ALLERGY","Y","count","quantity",1,94,4,1,"_NULL_","_NULL_"
"_ALL_","IMMUNE SYSTEM DISORDERS","SEASONAL ALLERGY","Y","countdistinct","USUBJID",1,94,4,2,"_NULL_","_NULL_"
"_ALL_","INFECTIONS AND INFESTATIONS","_ALL_","Y","count","quantity",73,95,4,1,"_NULL_","_NULL_"
"_ALL_","INFECTIONS AND INFESTATIONS","_ALL_","Y","countdistinct","USUBJID",39,95,4,2,"_NULL_","_NULL_"
"_ALL_","INFECTIONS AND INFESTATIONS","BRONCHITIS","Y","count","quantity",1,96,4,1,"_NULL_","_NULL_"
"_ALL_","INFECTIONS AND INFESTATIONS","BRONCHITIS","Y","countdistinct","USUBJID",1,96,4,2,"_NULL_","_NULL_"
"_ALL_","INFECTIONS AND INFESTATIONS","CELLULITIS","Y","count","quantity",1,97,4,1,"_NULL_","_NULL_"
"_ALL_","INFECTIONS AND INFESTATIONS","CELLULITIS","Y","countdistinct","USUBJID",1,97,4,2,"_NULL_","_NULL_"
"_ALL_","INFECTIONS AND INFESTATIONS","CERVICITIS","Y","count","quantity",2,98,4,1,"_NULL_","_NULL_"
"_ALL_","INFECTIONS AND INFESTATIONS","CERVICITIS","Y","countdistinct","USUBJID",1,98,4,2,"_NULL_","_NULL_"
"_ALL_","INFECTIONS AND INFESTATIONS","CYSTITIS","Y","count","quantity",2,99,4,1,"_NULL_","_NULL_"
"_ALL_","INFECTIONS AND INFESTATIONS","CYSTITIS","Y","countdistinct","USUBJID",2,99,4,2,"_NULL_","_NULL_"
"_ALL_","INFECTIONS AND INFESTATIONS","EAR INFECTION","Y","count","quantity",4,100,4,1,"_NULL_","_NULL_"
"_ALL_","INFECTIONS AND INFESTATIONS","EAR INFECTION","Y","countdistinct","USUBJID",2,100,4,2,"_NULL_","_NULL_"
"_ALL_","INFECTIONS AND INFESTATIONS","GASTROENTERITIS VIRAL","Y","count","quantity",1,101,4,1,"_NULL_","_NULL_"
"_ALL_","INFECTIONS AND INFESTATIONS","GASTROENTERITIS VIRAL","Y","countdistinct","USUBJID",1,101,4,2,"_NULL_","_NULL_"
"_ALL_","INFECTIONS AND INFESTATIONS","HORDEOLUM","Y","count","quantity",1,102,4,1,"_NULL_","_NULL_"
"_ALL_","INFECTIONS AND INFESTATIONS","HORDEOLUM","Y","countdistinct","USUBJID",1,102,4,2,"_NULL_","_NULL_"
"_ALL_","INFECTIONS AND INFESTATIONS","INFLUENZA","Y","count","quantity",4,103,4,1,"_NULL_","_NULL_"
"_ALL_","INFECTIONS AND INFESTATIONS","INFLUENZA","Y","countdistinct","USUBJID",3,103,4,2,"_NULL_","_NULL_"
"_ALL_","INFECTIONS AND INFESTATIONS","LOCALISED INFECTION","Y","count","quantity",3,104,4,1,"_NULL_","_NULL_"
"_ALL_","INFECTIONS AND INFESTATIONS","LOCALISED INFECTION","Y","countdistinct","USUBJID",2,104,4,2,"_NULL_","_NULL_"
"_ALL_","INFECTIONS AND INFESTATIONS","LOWER RESPIRATORY TRACT INFECTION","Y","count","quantity",2,105,4,1,"_NULL_","_NULL_"
"_ALL_","INFECTIONS AND INFESTATIONS","LOWER RESPIRATORY TRACT INFECTION","Y","countdistinct","USUBJID",1,105,4,2,"_NULL_","_NULL_"
"_ALL_","INFECTIONS AND INFESTATIONS","NASOPHARYNGITIS","Y","count","quantity",21,106,4,1,"_NULL_","_NULL_"
"_ALL_","INFECTIONS AND INFESTATIONS","NASOPHARYNGITIS","Y","countdistinct","USUBJID",12,106,4,2,"_NULL_","_NULL_"
"_ALL_","INFECTIONS AND INFESTATIONS","ONYCHOMYCOSIS","Y","count","quantity",1,107,4,1,"_NULL_","_NULL_"
"_ALL_","INFECTIONS AND INFESTATIONS","ONYCHOMYCOSIS","Y","countdistinct","USUBJID",1,107,4,2,"_NULL_","_NULL_"
"_ALL_","INFECTIONS AND INFESTATIONS","PNEUMONIA","Y","count","quantity",2,108,4,1,"_NULL_","_NULL_"
"_ALL_","INFECTIONS AND INFESTATIONS","PNEUMONIA","Y","countdistinct","USUBJID",1,108,4,2,"_NULL_","_NULL_"
"_ALL_","INFECTIONS AND INFESTATIONS","RHINITIS","Y","count","quantity",1,109,4,1,"_NULL_","_NULL_"
"_ALL_","INFECTIONS AND INFESTATIONS","RHINITIS","Y","countdistinct","USUBJID",1,109,4,2,"_NULL_","_NULL_"
"_ALL_","INFECTIONS AND INFESTATIONS","UPPER RESPIRATORY TRACT INFECTION","Y","count","quantity",19,110,4,1,"_NULL_","_NULL_"
"_ALL_","INFECTIONS AND INFESTATIONS","UPPER RESPIRATORY TRACT INFECTION","Y","countdistinct","USUBJID",10,110,4,2,"_NULL_","_NULL_"
"_ALL_","INFECTIONS AND INFESTATIONS","URINARY TRACT INFECTION","Y","count","quantity",5,111,4,1,"_NULL_","_NULL_"
"_ALL_","INFECTIONS AND INFESTATIONS","URINARY TRACT INFECTION","Y","countdistinct","USUBJID",3,111,4,2,"_NULL_","_NULL_"
"_ALL_","INFECTIONS AND INFESTATIONS","VAGINAL MYCOSIS","Y","count","quantity",2,112,4,1,"_NULL_","_NULL_"
"_ALL_","INFECTIONS AND INFESTATIONS","VAGINAL MYCOSIS","Y","countdistinct","USUBJID",1,112,4,2,"_NULL_","_NULL_"
"_ALL_","INFECTIONS AND INFESTATIONS","VIRAL INFECTION","Y","count","quantity",1,113,4,1,"_NULL_","_NULL_"
"_ALL_","INFECTIONS AND INFESTATIONS","VIRAL INFECTION","Y","countdistinct","USUBJID",1,113,4,2,"_NULL_","_NULL_"
"_ALL_","INJURY, POISONING AND PROCEDURAL COMPLICATIONS","_ALL_","Y","count","quantity",29,114,4,1,"_NULL_","_NULL_"
"_ALL_","INJURY, POISONING AND PROCEDURAL COMPLICATIONS","_ALL_","Y","countdistinct","USUBJID",14,114,4,2,"_NULL_","_NULL_"
"_ALL_","INJURY, POISONING AND PROCEDURAL COMPLICATIONS","CONTUSION","Y","count","quantity",7,115,4,1,"_NULL_","_NULL_"
"_ALL_","INJURY, POISONING AND PROCEDURAL COMPLICATIONS","CONTUSION","Y","countdistinct","USUBJID",4,115,4,2,"_NULL_","_NULL_"
"_ALL_","INJURY, POISONING AND PROCEDURAL COMPLICATIONS","EXCORIATION","Y","count","quantity",6,116,4,1,"_NULL_","_NULL_"
"_ALL_","INJURY, POISONING AND PROCEDURAL COMPLICATIONS","EXCORIATION","Y","countdistinct","USUBJID",4,116,4,2,"_NULL_","_NULL_"
"_ALL_","INJURY, POISONING AND PROCEDURAL COMPLICATIONS","FACIAL BONES FRACTURE","Y","count","quantity",1,117,4,1,"_NULL_","_NULL_"
"_ALL_","INJURY, POISONING AND PROCEDURAL COMPLICATIONS","FACIAL BONES FRACTURE","Y","countdistinct","USUBJID",1,117,4,2,"_NULL_","_NULL_"
"_ALL_","INJURY, POISONING AND PROCEDURAL COMPLICATIONS","FALL","Y","count","quantity",5,118,4,1,"_NULL_","_NULL_"
"_ALL_","INJURY, POISONING AND PROCEDURAL COMPLICATIONS","FALL","Y","countdistinct","USUBJID",4,118,4,2,"_NULL_","_NULL_"
"_ALL_","INJURY, POISONING AND PROCEDURAL COMPLICATIONS","HIP FRACTURE","Y","count","quantity",4,119,4,1,"_NULL_","_NULL_"
"_ALL_","INJURY, POISONING AND PROCEDURAL COMPLICATIONS","HIP FRACTURE","Y","countdistinct","USUBJID",3,119,4,2,"_NULL_","_NULL_"
"_ALL_","INJURY, POISONING AND PROCEDURAL COMPLICATIONS","JOINT DISLOCATION","Y","count","quantity",1,120,4,1,"_NULL_","_NULL_"
"_ALL_","INJURY, POISONING AND PROCEDURAL COMPLICATIONS","JOINT DISLOCATION","Y","countdistinct","USUBJID",1,120,4,2,"_NULL_","_NULL_"
"_ALL_","INJURY, POISONING AND PROCEDURAL COMPLICATIONS","SKIN LACERATION","Y","count","quantity",3,121,4,1,"_NULL_","_NULL_"
"_ALL_","INJURY, POISONING AND PROCEDURAL COMPLICATIONS","SKIN LACERATION","Y","countdistinct","USUBJID",3,121,4,2,"_NULL_","_NULL_"
"_ALL_","INJURY, POISONING AND PROCEDURAL COMPLICATIONS","WOUND","Y","count","quantity",2,122,4,1,"_NULL_","_NULL_"
"_ALL_","INJURY, POISONING AND PROCEDURAL COMPLICATIONS","WOUND","Y","countdistinct","USUBJID",1,122,4,2,"_NULL_","_NULL_"
"_ALL_","INVESTIGATIONS","_ALL_","Y","count","quantity",40,123,4,1,"_NULL_","_NULL_"
"_ALL_","INVESTIGATIONS","_ALL_","Y","countdistinct","USUBJID",23,123,4,2,"_NULL_","_NULL_"
"_ALL_","INVESTIGATIONS","BIOPSY","Y","count","quantity",1,124,4,1,"_NULL_","_NULL_"
"_ALL_","INVESTIGATIONS","BIOPSY","Y","countdistinct","USUBJID",1,124,4,2,"_NULL_","_NULL_"
"_ALL_","INVESTIGATIONS","BIOPSY PROSTATE","Y","count","quantity",1,125,4,1,"_NULL_","_NULL_"
"_ALL_","INVESTIGATIONS","BIOPSY PROSTATE","Y","countdistinct","USUBJID",1,125,4,2,"_NULL_","_NULL_"
"_ALL_","INVESTIGATIONS","BLOOD ALKALINE PHOSPHATASE INCREASED","Y","count","quantity",1,126,4,1,"_NULL_","_NULL_"
"_ALL_","INVESTIGATIONS","BLOOD ALKALINE PHOSPHATASE INCREASED","Y","countdistinct","USUBJID",1,126,4,2,"_NULL_","_NULL_"
"_ALL_","INVESTIGATIONS","BLOOD CHOLESTEROL INCREASED","Y","count","quantity",1,127,4,1,"_NULL_","_NULL_"
"_ALL_","INVESTIGATIONS","BLOOD CHOLESTEROL INCREASED","Y","countdistinct","USUBJID",1,127,4,2,"_NULL_","_NULL_"
"_ALL_","INVESTIGATIONS","BLOOD CREATINE PHOSPHOKINASE INCREASED","Y","count","quantity",2,128,4,1,"_NULL_","_NULL_"
"_ALL_","INVESTIGATIONS","BLOOD CREATINE PHOSPHOKINASE INCREASED","Y","countdistinct","USUBJID",1,128,4,2,"_NULL_","_NULL_"
"_ALL_","INVESTIGATIONS","BLOOD GLUCOSE INCREASED","Y","count","quantity",3,129,4,1,"_NULL_","_NULL_"
"_ALL_","INVESTIGATIONS","BLOOD GLUCOSE INCREASED","Y","countdistinct","USUBJID",2,129,4,2,"_NULL_","_NULL_"
"_ALL_","INVESTIGATIONS","BLOOD URINE PRESENT","Y","count","quantity",1,130,4,1,"_NULL_","_NULL_"
"_ALL_","INVESTIGATIONS","BLOOD URINE PRESENT","Y","countdistinct","USUBJID",1,130,4,2,"_NULL_","_NULL_"
"_ALL_","INVESTIGATIONS","BODY TEMPERATURE INCREASED","Y","count","quantity",1,131,4,1,"_NULL_","_NULL_"
"_ALL_","INVESTIGATIONS","BODY TEMPERATURE INCREASED","Y","countdistinct","USUBJID",1,131,4,2,"_NULL_","_NULL_"
"_ALL_","INVESTIGATIONS","CYSTOSCOPY","Y","count","quantity",1,132,4,1,"_NULL_","_NULL_"
"_ALL_","INVESTIGATIONS","CYSTOSCOPY","Y","countdistinct","USUBJID",1,132,4,2,"_NULL_","_NULL_"
"_ALL_","INVESTIGATIONS","ELECTROCARDIOGRAM ST SEGMENT DEPRESSION","Y","count","quantity",6,133,4,1,"_NULL_","_NULL_"
"_ALL_","INVESTIGATIONS","ELECTROCARDIOGRAM ST SEGMENT DEPRESSION","Y","countdistinct","USUBJID",5,133,4,2,"_NULL_","_NULL_"
"_ALL_","INVESTIGATIONS","ELECTROCARDIOGRAM T WAVE AMPLITUDE DECREASED","Y","count","quantity",2,134,4,1,"_NULL_","_NULL_"
"_ALL_","INVESTIGATIONS","ELECTROCARDIOGRAM T WAVE AMPLITUDE DECREASED","Y","countdistinct","USUBJID",2,134,4,2,"_NULL_","_NULL_"
"_ALL_","INVESTIGATIONS","ELECTROCARDIOGRAM T WAVE INVERSION","Y","count","quantity",5,135,4,1,"_NULL_","_NULL_"
"_ALL_","INVESTIGATIONS","ELECTROCARDIOGRAM T WAVE INVERSION","Y","countdistinct","USUBJID",4,135,4,2,"_NULL_","_NULL_"
"_ALL_","INVESTIGATIONS","HEART RATE INCREASED","Y","count","quantity",2,136,4,1,"_NULL_","_NULL_"
"_ALL_","INVESTIGATIONS","HEART RATE INCREASED","Y","countdistinct","USUBJID",1,136,4,2,"_NULL_","_NULL_"
"_ALL_","INVESTIGATIONS","HEART RATE IRREGULAR","Y","count","quantity",4,137,4,1,"_NULL_","_NULL_"
"_ALL_","INVESTIGATIONS","HEART RATE IRREGULAR","Y","countdistinct","USUBJID",1,137,4,2,"_NULL_","_NULL_"
"_ALL_","INVESTIGATIONS","NASAL MUCOSA BIOPSY","Y","count","quantity",1,138,4,1,"_NULL_","_NULL_"
"_ALL_","INVESTIGATIONS","NASAL MUCOSA BIOPSY","Y","countdistinct","USUBJID",1,138,4,2,"_NULL_","_NULL_"
"_ALL_","INVESTIGATIONS","NEUTROPHIL COUNT INCREASED","Y","count","quantity",2,139,4,1,"_NULL_","_NULL_"
"_ALL_","INVESTIGATIONS","NEUTROPHIL COUNT INCREASED","Y","countdistinct","USUBJID",1,139,4,2,"_NULL_","_NULL_"
"_ALL_","INVESTIGATIONS","URINE ANALYSIS ABNORMAL","Y","count","quantity",2,140,4,1,"_NULL_","_NULL_"
"_ALL_","INVESTIGATIONS","URINE ANALYSIS ABNORMAL","Y","countdistinct","USUBJID",1,140,4,2,"_NULL_","_NULL_"
"_ALL_","INVESTIGATIONS","WEIGHT DECREASED","Y","count","quantity",2,141,4,1,"_NULL_","_NULL_"
"_ALL_","INVESTIGATIONS","WEIGHT DECREASED","Y","countdistinct","USUBJID",1,141,4,2,"_NULL_","_NULL_"
"_ALL_","INVESTIGATIONS","WHITE BLOOD CELL COUNT INCREASED","Y","count","quantity",2,142,4,1,"_NULL_","_NULL_"
"_ALL_","INVESTIGATIONS","WHITE BLOOD CELL COUNT INCREASED","Y","countdistinct","USUBJID",1,142,4,2,"_NULL_","_NULL_"
"_ALL_","METABOLISM AND NUTRITION DISORDERS","_ALL_","Y","count","quantity",14,143,4,1,"_NULL_","_NULL_"
"_ALL_","METABOLISM AND NUTRITION DISORDERS","_ALL_","Y","countdistinct","USUBJID",10,143,4,2,"_NULL_","_NULL_"
"_ALL_","METABOLISM AND NUTRITION DISORDERS","DECREASED APPETITE","Y","count","quantity",4,144,4,1,"_NULL_","_NULL_"
"_ALL_","METABOLISM AND NUTRITION DISORDERS","DECREASED APPETITE","Y","countdistinct","USUBJID",2,144,4,2,"_NULL_","_NULL_"
"_ALL_","METABOLISM AND NUTRITION DISORDERS","DEHYDRATION","Y","count","quantity",1,145,4,1,"_NULL_","_NULL_"
"_ALL_","METABOLISM AND NUTRITION DISORDERS","DEHYDRATION","Y","countdistinct","USUBJID",1,145,4,2,"_NULL_","_NULL_"
"_ALL_","METABOLISM AND NUTRITION DISORDERS","DIABETES MELLITUS","Y","count","quantity",1,146,4,1,"_NULL_","_NULL_"
"_ALL_","METABOLISM AND NUTRITION DISORDERS","DIABETES MELLITUS","Y","countdistinct","USUBJID",1,146,4,2,"_NULL_","_NULL_"
"_ALL_","METABOLISM AND NUTRITION DISORDERS","FOOD CRAVING","Y","count","quantity",2,147,4,1,"_NULL_","_NULL_"
"_ALL_","METABOLISM AND NUTRITION DISORDERS","FOOD CRAVING","Y","countdistinct","USUBJID",2,147,4,2,"_NULL_","_NULL_"
"_ALL_","METABOLISM AND NUTRITION DISORDERS","HYPERCHOLESTEROLAEMIA","Y","count","quantity",1,148,4,1,"_NULL_","_NULL_"
"_ALL_","METABOLISM AND NUTRITION DISORDERS","HYPERCHOLESTEROLAEMIA","Y","countdistinct","USUBJID",1,148,4,2,"_NULL_","_NULL_"
"_ALL_","METABOLISM AND NUTRITION DISORDERS","HYPONATRAEMIA","Y","count","quantity",1,149,4,1,"_NULL_","_NULL_"
"_ALL_","METABOLISM AND NUTRITION DISORDERS","HYPONATRAEMIA","Y","countdistinct","USUBJID",1,149,4,2,"_NULL_","_NULL_"
"_ALL_","METABOLISM AND NUTRITION DISORDERS","INCREASED APPETITE","Y","count","quantity",4,150,4,1,"_NULL_","_NULL_"
"_ALL_","METABOLISM AND NUTRITION DISORDERS","INCREASED APPETITE","Y","countdistinct","USUBJID",2,150,4,2,"_NULL_","_NULL_"
"_ALL_","MUSCULOSKELETAL AND CONNECTIVE TISSUE DISORDERS","_ALL_","Y","count","quantity",29,151,4,1,"_NULL_","_NULL_"
"_ALL_","MUSCULOSKELETAL AND CONNECTIVE TISSUE DISORDERS","_ALL_","Y","countdistinct","USUBJID",20,151,4,2,"_NULL_","_NULL_"
"_ALL_","MUSCULOSKELETAL AND CONNECTIVE TISSUE DISORDERS","ARTHRALGIA","Y","count","quantity",6,152,4,1,"_NULL_","_NULL_"
"_ALL_","MUSCULOSKELETAL AND CONNECTIVE TISSUE DISORDERS","ARTHRALGIA","Y","countdistinct","USUBJID",4,152,4,2,"_NULL_","_NULL_"
"_ALL_","MUSCULOSKELETAL AND CONNECTIVE TISSUE DISORDERS","ARTHRITIS","Y","count","quantity",3,153,4,1,"_NULL_","_NULL_"
"_ALL_","MUSCULOSKELETAL AND CONNECTIVE TISSUE DISORDERS","ARTHRITIS","Y","countdistinct","USUBJID",2,153,4,2,"_NULL_","_NULL_"
"_ALL_","MUSCULOSKELETAL AND CONNECTIVE TISSUE DISORDERS","BACK PAIN","Y","count","quantity",7,154,4,1,"_NULL_","_NULL_"
"_ALL_","MUSCULOSKELETAL AND CONNECTIVE TISSUE DISORDERS","BACK PAIN","Y","countdistinct","USUBJID",5,154,4,2,"_NULL_","_NULL_"
"_ALL_","MUSCULOSKELETAL AND CONNECTIVE TISSUE DISORDERS","FLANK PAIN","Y","count","quantity",2,155,4,1,"_NULL_","_NULL_"
"_ALL_","MUSCULOSKELETAL AND CONNECTIVE TISSUE DISORDERS","FLANK PAIN","Y","countdistinct","USUBJID",2,155,4,2,"_NULL_","_NULL_"
"_ALL_","MUSCULOSKELETAL AND CONNECTIVE TISSUE DISORDERS","MUSCLE SPASMS","Y","count","quantity",3,156,4,1,"_NULL_","_NULL_"
"_ALL_","MUSCULOSKELETAL AND CONNECTIVE TISSUE DISORDERS","MUSCLE SPASMS","Y","countdistinct","USUBJID",2,156,4,2,"_NULL_","_NULL_"
"_ALL_","MUSCULOSKELETAL AND CONNECTIVE TISSUE DISORDERS","MUSCULAR WEAKNESS","Y","count","quantity",2,157,4,1,"_NULL_","_NULL_"
"_ALL_","MUSCULOSKELETAL AND CONNECTIVE TISSUE DISORDERS","MUSCULAR WEAKNESS","Y","countdistinct","USUBJID",1,157,4,2,"_NULL_","_NULL_"
"_ALL_","MUSCULOSKELETAL AND CONNECTIVE TISSUE DISORDERS","MYALGIA","Y","count","quantity",1,158,4,1,"_NULL_","_NULL_"
"_ALL_","MUSCULOSKELETAL AND CONNECTIVE TISSUE DISORDERS","MYALGIA","Y","countdistinct","USUBJID",1,158,4,2,"_NULL_","_NULL_"
"_ALL_","MUSCULOSKELETAL AND CONNECTIVE TISSUE DISORDERS","PAIN IN EXTREMITY","Y","count","quantity",1,159,4,1,"_NULL_","_NULL_"
"_ALL_","MUSCULOSKELETAL AND CONNECTIVE TISSUE DISORDERS","PAIN IN EXTREMITY","Y","countdistinct","USUBJID",1,159,4,2,"_NULL_","_NULL_"
"_ALL_","MUSCULOSKELETAL AND CONNECTIVE TISSUE DISORDERS","SHOULDER PAIN","Y","count","quantity",4,160,4,1,"_NULL_","_NULL_"
"_ALL_","MUSCULOSKELETAL AND CONNECTIVE TISSUE DISORDERS","SHOULDER PAIN","Y","countdistinct","USUBJID",3,160,4,2,"_NULL_","_NULL_"
"_ALL_","NEOPLASMS BENIGN, MALIGNANT AND UNSPECIFIED (INCL CYSTS AND POLYPS)","_ALL_","Y","count","quantity",4,161,4,1,"_NULL_","_NULL_"
"_ALL_","NEOPLASMS BENIGN, MALIGNANT AND UNSPECIFIED (INCL CYSTS AND POLYPS)","_ALL_","Y","countdistinct","USUBJID",3,161,4,2,"_NULL_","_NULL_"
"_ALL_","NEOPLASMS BENIGN, MALIGNANT AND UNSPECIFIED (INCL CYSTS AND POLYPS)","COLON CANCER","Y","count","quantity",1,162,4,1,"_NULL_","_NULL_"
"_ALL_","NEOPLASMS BENIGN, MALIGNANT AND UNSPECIFIED (INCL CYSTS AND POLYPS)","COLON CANCER","Y","countdistinct","USUBJID",1,162,4,2,"_NULL_","_NULL_"
"_ALL_","NEOPLASMS BENIGN, MALIGNANT AND UNSPECIFIED (INCL CYSTS AND POLYPS)","MALIGNANT FIBROUS HISTIOCYTOMA","Y","count","quantity",2,163,4,1,"_NULL_","_NULL_"
"_ALL_","NEOPLASMS BENIGN, MALIGNANT AND UNSPECIFIED (INCL CYSTS AND POLYPS)","MALIGNANT FIBROUS HISTIOCYTOMA","Y","countdistinct","USUBJID",1,163,4,2,"_NULL_","_NULL_"
"_ALL_","NEOPLASMS BENIGN, MALIGNANT AND UNSPECIFIED (INCL CYSTS AND POLYPS)","PROSTATE CANCER","Y","count","quantity",1,164,4,1,"_NULL_","_NULL_"
"_ALL_","NEOPLASMS BENIGN, MALIGNANT AND UNSPECIFIED (INCL CYSTS AND POLYPS)","PROSTATE CANCER","Y","countdistinct","USUBJID",1,164,4,2,"_NULL_","_NULL_"
"_ALL_","NERVOUS SYSTEM DISORDERS","_ALL_","Y","count","quantity",101,165,4,1,"_NULL_","_NULL_"
"_ALL_","NERVOUS SYSTEM DISORDERS","_ALL_","Y","countdistinct","USUBJID",59,165,4,2,"_NULL_","_NULL_"
"_ALL_","NERVOUS SYSTEM DISORDERS","AMNESIA","Y","count","quantity",2,166,4,1,"_NULL_","_NULL_"
"_ALL_","NERVOUS SYSTEM DISORDERS","AMNESIA","Y","countdistinct","USUBJID",1,166,4,2,"_NULL_","_NULL_"
"_ALL_","NERVOUS SYSTEM DISORDERS","BALANCE DISORDER","Y","count","quantity",3,167,4,1,"_NULL_","_NULL_"
"_ALL_","NERVOUS SYSTEM DISORDERS","BALANCE DISORDER","Y","countdistinct","USUBJID",1,167,4,2,"_NULL_","_NULL_"
"_ALL_","NERVOUS SYSTEM DISORDERS","BURNING SENSATION","Y","count","quantity",2,168,4,1,"_NULL_","_NULL_"
"_ALL_","NERVOUS SYSTEM DISORDERS","BURNING SENSATION","Y","countdistinct","USUBJID",2,168,4,2,"_NULL_","_NULL_"
"_ALL_","NERVOUS SYSTEM DISORDERS","COGNITIVE DISORDER","Y","count","quantity",1,169,4,1,"_NULL_","_NULL_"
"_ALL_","NERVOUS SYSTEM DISORDERS","COGNITIVE DISORDER","Y","countdistinct","USUBJID",1,169,4,2,"_NULL_","_NULL_"
"_ALL_","NERVOUS SYSTEM DISORDERS","COMPLEX PARTIAL SEIZURES","Y","count","quantity",1,170,4,1,"_NULL_","_NULL_"
"_ALL_","NERVOUS SYSTEM DISORDERS","COMPLEX PARTIAL SEIZURES","Y","countdistinct","USUBJID",1,170,4,2,"_NULL_","_NULL_"
"_ALL_","NERVOUS SYSTEM DISORDERS","COORDINATION ABNORMAL","Y","count","quantity",1,171,4,1,"_NULL_","_NULL_"
"_ALL_","NERVOUS SYSTEM DISORDERS","COORDINATION ABNORMAL","Y","countdistinct","USUBJID",1,171,4,2,"_NULL_","_NULL_"
"_ALL_","NERVOUS SYSTEM DISORDERS","DIZZINESS","Y","count","quantity",34,172,4,1,"_NULL_","_NULL_"
"_ALL_","NERVOUS SYSTEM DISORDERS","DIZZINESS","Y","countdistinct","USUBJID",22,172,4,2,"_NULL_","_NULL_"
"_ALL_","NERVOUS SYSTEM DISORDERS","HEADACHE","Y","count","quantity",21,173,4,1,"_NULL_","_NULL_"
"_ALL_","NERVOUS SYSTEM DISORDERS","HEADACHE","Y","countdistinct","USUBJID",16,173,4,2,"_NULL_","_NULL_"
"_ALL_","NERVOUS SYSTEM DISORDERS","HEMIANOPIA HOMONYMOUS","Y","count","quantity",1,174,4,1,"_NULL_","_NULL_"
"_ALL_","NERVOUS SYSTEM DISORDERS","HEMIANOPIA HOMONYMOUS","Y","countdistinct","USUBJID",1,174,4,2,"_NULL_","_NULL_"
"_ALL_","NERVOUS SYSTEM DISORDERS","HYPERSOMNIA","Y","count","quantity",1,175,4,1,"_NULL_","_NULL_"
"_ALL_","NERVOUS SYSTEM DISORDERS","HYPERSOMNIA","Y","countdistinct","USUBJID",1,175,4,2,"_NULL_","_NULL_"
"_ALL_","NERVOUS SYSTEM DISORDERS","LETHARGY","Y","count","quantity",2,176,4,1,"_NULL_","_NULL_"
"_ALL_","NERVOUS SYSTEM DISORDERS","LETHARGY","Y","countdistinct","USUBJID",2,176,4,2,"_NULL_","_NULL_"
"_ALL_","NERVOUS SYSTEM DISORDERS","PARAESTHESIA","Y","count","quantity",1,177,4,1,"_NULL_","_NULL_"
"_ALL_","NERVOUS SYSTEM DISORDERS","PARAESTHESIA","Y","countdistinct","USUBJID",1,177,4,2,"_NULL_","_NULL_"
"_ALL_","NERVOUS SYSTEM DISORDERS","PARAESTHESIA ORAL","Y","count","quantity",1,178,4,1,"_NULL_","_NULL_"
"_ALL_","NERVOUS SYSTEM DISORDERS","PARAESTHESIA ORAL","Y","countdistinct","USUBJID",1,178,4,2,"_NULL_","_NULL_"
"_ALL_","NERVOUS SYSTEM DISORDERS","PARKINSON'S DISEASE","Y","count","quantity",1,179,4,1,"_NULL_","_NULL_"
"_ALL_","NERVOUS SYSTEM DISORDERS","PARKINSON'S DISEASE","Y","countdistinct","USUBJID",1,179,4,2,"_NULL_","_NULL_"
"_ALL_","NERVOUS SYSTEM DISORDERS","PAROSMIA","Y","count","quantity",2,180,4,1,"_NULL_","_NULL_"
"_ALL_","NERVOUS SYSTEM DISORDERS","PAROSMIA","Y","countdistinct","USUBJID",1,180,4,2,"_NULL_","_NULL_"
"_ALL_","NERVOUS SYSTEM DISORDERS","PARTIAL SEIZURES WITH SECONDARY GENERALISATION","Y","count","quantity",1,181,4,1,"_NULL_","_NULL_"
"_ALL_","NERVOUS SYSTEM DISORDERS","PARTIAL SEIZURES WITH SECONDARY GENERALISATION","Y","countdistinct","USUBJID",1,181,4,2,"_NULL_","_NULL_"
"_ALL_","NERVOUS SYSTEM DISORDERS","PSYCHOMOTOR HYPERACTIVITY","Y","count","quantity",1,182,4,1,"_NULL_","_NULL_"
"_ALL_","NERVOUS SYSTEM DISORDERS","PSYCHOMOTOR HYPERACTIVITY","Y","countdistinct","USUBJID",1,182,4,2,"_NULL_","_NULL_"
"_ALL_","NERVOUS SYSTEM DISORDERS","SOMNOLENCE","Y","count","quantity",9,183,4,1,"_NULL_","_NULL_"
"_ALL_","NERVOUS SYSTEM DISORDERS","SOMNOLENCE","Y","countdistinct","USUBJID",6,183,4,2,"_NULL_","_NULL_"
"_ALL_","NERVOUS SYSTEM DISORDERS","STUPOR","Y","count","quantity",1,184,4,1,"_NULL_","_NULL_"
"_ALL_","NERVOUS SYSTEM DISORDERS","STUPOR","Y","countdistinct","USUBJID",1,184,4,2,"_NULL_","_NULL_"
"_ALL_","NERVOUS SYSTEM DISORDERS","SYNCOPE","Y","count","quantity",10,185,4,1,"_NULL_","_NULL_"
"_ALL_","NERVOUS SYSTEM DISORDERS","SYNCOPE","Y","countdistinct","USUBJID",7,185,4,2,"_NULL_","_NULL_"
"_ALL_","NERVOUS SYSTEM DISORDERS","SYNCOPE VASOVAGAL","Y","count","quantity",1,186,4,1,"_NULL_","_NULL_"
"_ALL_","NERVOUS SYSTEM DISORDERS","SYNCOPE VASOVAGAL","Y","countdistinct","USUBJID",1,186,4,2,"_NULL_","_NULL_"
"_ALL_","NERVOUS SYSTEM DISORDERS","TRANSIENT ISCHAEMIC ATTACK","Y","count","quantity",4,187,4,1,"_NULL_","_NULL_"
"_ALL_","NERVOUS SYSTEM DISORDERS","TRANSIENT ISCHAEMIC ATTACK","Y","countdistinct","USUBJID",3,187,4,2,"_NULL_","_NULL_"
"_ALL_","PSYCHIATRIC DISORDERS","_ALL_","Y","count","quantity",40,188,4,1,"_NULL_","_NULL_"
"_ALL_","PSYCHIATRIC DISORDERS","_ALL_","Y","countdistinct","USUBJID",29,188,4,2,"_NULL_","_NULL_"
"_ALL_","PSYCHIATRIC DISORDERS","AGITATION","Y","count","quantity",5,189,4,1,"_NULL_","_NULL_"
"_ALL_","PSYCHIATRIC DISORDERS","AGITATION","Y","countdistinct","USUBJID",5,189,4,2,"_NULL_","_NULL_"
"_ALL_","PSYCHIATRIC DISORDERS","ANXIETY","Y","count","quantity",6,190,4,1,"_NULL_","_NULL_"
"_ALL_","PSYCHIATRIC DISORDERS","ANXIETY","Y","countdistinct","USUBJID",4,190,4,2,"_NULL_","_NULL_"
"_ALL_","PSYCHIATRIC DISORDERS","COMPLETED SUICIDE","Y","count","quantity",1,191,4,1,"_NULL_","_NULL_"
"_ALL_","PSYCHIATRIC DISORDERS","COMPLETED SUICIDE","Y","countdistinct","USUBJID",1,191,4,2,"_NULL_","_NULL_"
"_ALL_","PSYCHIATRIC DISORDERS","CONFUSIONAL STATE","Y","count","quantity",6,192,4,1,"_NULL_","_NULL_"
"_ALL_","PSYCHIATRIC DISORDERS","CONFUSIONAL STATE","Y","countdistinct","USUBJID",6,192,4,2,"_NULL_","_NULL_"
"_ALL_","PSYCHIATRIC DISORDERS","DELIRIUM","Y","count","quantity",1,193,4,1,"_NULL_","_NULL_"
"_ALL_","PSYCHIATRIC DISORDERS","DELIRIUM","Y","countdistinct","USUBJID",1,193,4,2,"_NULL_","_NULL_"
"_ALL_","PSYCHIATRIC DISORDERS","DELUSION","Y","count","quantity",2,194,4,1,"_NULL_","_NULL_"
"_ALL_","PSYCHIATRIC DISORDERS","DELUSION","Y","countdistinct","USUBJID",2,194,4,2,"_NULL_","_NULL_"
"_ALL_","PSYCHIATRIC DISORDERS","DEPRESSED MOOD","Y","count","quantity",3,195,4,1,"_NULL_","_NULL_"
"_ALL_","PSYCHIATRIC DISORDERS","DEPRESSED MOOD","Y","countdistinct","USUBJID",2,195,4,2,"_NULL_","_NULL_"
"_ALL_","PSYCHIATRIC DISORDERS","DISORIENTATION","Y","count","quantity",1,196,4,1,"_NULL_","_NULL_"
"_ALL_","PSYCHIATRIC DISORDERS","DISORIENTATION","Y","countdistinct","USUBJID",1,196,4,2,"_NULL_","_NULL_"
"_ALL_","PSYCHIATRIC DISORDERS","HALLUCINATION","Y","count","quantity",1,197,4,1,"_NULL_","_NULL_"
"_ALL_","PSYCHIATRIC DISORDERS","HALLUCINATION","Y","countdistinct","USUBJID",1,197,4,2,"_NULL_","_NULL_"
"_ALL_","PSYCHIATRIC DISORDERS","HALLUCINATION, VISUAL","Y","count","quantity",1,198,4,1,"_NULL_","_NULL_"
"_ALL_","PSYCHIATRIC DISORDERS","HALLUCINATION, VISUAL","Y","countdistinct","USUBJID",1,198,4,2,"_NULL_","_NULL_"
"_ALL_","PSYCHIATRIC DISORDERS","INSOMNIA","Y","count","quantity",5,199,4,1,"_NULL_","_NULL_"
"_ALL_","PSYCHIATRIC DISORDERS","INSOMNIA","Y","countdistinct","USUBJID",4,199,4,2,"_NULL_","_NULL_"
"_ALL_","PSYCHIATRIC DISORDERS","IRRITABILITY","Y","count","quantity",3,200,4,1,"_NULL_","_NULL_"
"_ALL_","PSYCHIATRIC DISORDERS","IRRITABILITY","Y","countdistinct","USUBJID",2,200,4,2,"_NULL_","_NULL_"
"_ALL_","PSYCHIATRIC DISORDERS","LIBIDO DECREASED","Y","count","quantity",1,201,4,1,"_NULL_","_NULL_"
"_ALL_","PSYCHIATRIC DISORDERS","LIBIDO DECREASED","Y","countdistinct","USUBJID",1,201,4,2,"_NULL_","_NULL_"
"_ALL_","PSYCHIATRIC DISORDERS","LISTLESS","Y","count","quantity",1,202,4,1,"_NULL_","_NULL_"
"_ALL_","PSYCHIATRIC DISORDERS","LISTLESS","Y","countdistinct","USUBJID",1,202,4,2,"_NULL_","_NULL_"
"_ALL_","PSYCHIATRIC DISORDERS","NIGHTMARE","Y","count","quantity",1,203,4,1,"_NULL_","_NULL_"
"_ALL_","PSYCHIATRIC DISORDERS","NIGHTMARE","Y","countdistinct","USUBJID",1,203,4,2,"_NULL_","_NULL_"
"_ALL_","PSYCHIATRIC DISORDERS","RESTLESSNESS","Y","count","quantity",2,204,4,1,"_NULL_","_NULL_"
"_ALL_","PSYCHIATRIC DISORDERS","RESTLESSNESS","Y","countdistinct","USUBJID",1,204,4,2,"_NULL_","_NULL_"
"_ALL_","RENAL AND URINARY DISORDERS","_ALL_","Y","count","quantity",13,205,4,1,"_NULL_","_NULL_"
"_ALL_","RENAL AND URINARY DISORDERS","_ALL_","Y","countdistinct","USUBJID",11,205,4,2,"_NULL_","_NULL_"
"_ALL_","RENAL AND URINARY DISORDERS","CALCULUS URETHRAL","Y","count","quantity",1,206,4,1,"_NULL_","_NULL_"
"_ALL_","RENAL AND URINARY DISORDERS","CALCULUS URETHRAL","Y","countdistinct","USUBJID",1,206,4,2,"_NULL_","_NULL_"
"_ALL_","RENAL AND URINARY DISORDERS","DYSURIA","Y","count","quantity",2,207,4,1,"_NULL_","_NULL_"
"_ALL_","RENAL AND URINARY DISORDERS","DYSURIA","Y","countdistinct","USUBJID",2,207,4,2,"_NULL_","_NULL_"
"_ALL_","RENAL AND URINARY DISORDERS","ENURESIS","Y","count","quantity",1,208,4,1,"_NULL_","_NULL_"
"_ALL_","RENAL AND URINARY DISORDERS","ENURESIS","Y","countdistinct","USUBJID",1,208,4,2,"_NULL_","_NULL_"
"_ALL_","RENAL AND URINARY DISORDERS","INCONTINENCE","Y","count","quantity",1,209,4,1,"_NULL_","_NULL_"
"_ALL_","RENAL AND URINARY DISORDERS","INCONTINENCE","Y","countdistinct","USUBJID",1,209,4,2,"_NULL_","_NULL_"
"_ALL_","RENAL AND URINARY DISORDERS","MICTURITION URGENCY","Y","count","quantity",4,210,4,1,"_NULL_","_NULL_"
"_ALL_","RENAL AND URINARY DISORDERS","MICTURITION URGENCY","Y","countdistinct","USUBJID",3,210,4,2,"_NULL_","_NULL_"
"_ALL_","RENAL AND URINARY DISORDERS","NEPHROLITHIASIS","Y","count","quantity",2,211,4,1,"_NULL_","_NULL_"
"_ALL_","RENAL AND URINARY DISORDERS","NEPHROLITHIASIS","Y","countdistinct","USUBJID",2,211,4,2,"_NULL_","_NULL_"
"_ALL_","RENAL AND URINARY DISORDERS","POLLAKIURIA","Y","count","quantity",2,212,4,1,"_NULL_","_NULL_"
"_ALL_","RENAL AND URINARY DISORDERS","POLLAKIURIA","Y","countdistinct","USUBJID",1,212,4,2,"_NULL_","_NULL_"
"_ALL_","REPRODUCTIVE SYSTEM AND BREAST DISORDERS","_ALL_","Y","count","quantity",5,213,4,1,"_NULL_","_NULL_"
"_ALL_","REPRODUCTIVE SYSTEM AND BREAST DISORDERS","_ALL_","Y","countdistinct","USUBJID",3,213,4,2,"_NULL_","_NULL_"
"_ALL_","REPRODUCTIVE SYSTEM AND BREAST DISORDERS","BENIGN PROSTATIC HYPERPLASIA","Y","count","quantity",3,214,4,1,"_NULL_","_NULL_"
"_ALL_","REPRODUCTIVE SYSTEM AND BREAST DISORDERS","BENIGN PROSTATIC HYPERPLASIA","Y","countdistinct","USUBJID",2,214,4,2,"_NULL_","_NULL_"
"_ALL_","REPRODUCTIVE SYSTEM AND BREAST DISORDERS","PELVIC PAIN","Y","count","quantity",2,215,4,1,"_NULL_","_NULL_"
"_ALL_","REPRODUCTIVE SYSTEM AND BREAST DISORDERS","PELVIC PAIN","Y","countdistinct","USUBJID",1,215,4,2,"_NULL_","_NULL_"
"_ALL_","RESPIRATORY, THORACIC AND MEDIASTINAL DISORDERS","_ALL_","Y","count","quantity",53,216,4,1,"_NULL_","_NULL_"
"_ALL_","RESPIRATORY, THORACIC AND MEDIASTINAL DISORDERS","_ALL_","Y","countdistinct","USUBJID",30,216,4,2,"_NULL_","_NULL_"
"_ALL_","RESPIRATORY, THORACIC AND MEDIASTINAL DISORDERS","ALLERGIC GRANULOMATOUS ANGIITIS","Y","count","quantity",1,217,4,1,"_NULL_","_NULL_"
"_ALL_","RESPIRATORY, THORACIC AND MEDIASTINAL DISORDERS","ALLERGIC GRANULOMATOUS ANGIITIS","Y","countdistinct","USUBJID",1,217,4,2,"_NULL_","_NULL_"
"_ALL_","RESPIRATORY, THORACIC AND MEDIASTINAL DISORDERS","COUGH","Y","count","quantity",20,218,4,1,"_NULL_","_NULL_"
"_ALL_","RESPIRATORY, THORACIC AND MEDIASTINAL DISORDERS","COUGH","Y","countdistinct","USUBJID",14,218,4,2,"_NULL_","_NULL_"
"_ALL_","RESPIRATORY, THORACIC AND MEDIASTINAL DISORDERS","DYSPHONIA","Y","count","quantity",1,219,4,1,"_NULL_","_NULL_"
"_ALL_","RESPIRATORY, THORACIC AND MEDIASTINAL DISORDERS","DYSPHONIA","Y","countdistinct","USUBJID",1,219,4,2,"_NULL_","_NULL_"
"_ALL_","RESPIRATORY, THORACIC AND MEDIASTINAL DISORDERS","DYSPNOEA","Y","count","quantity",3,220,4,1,"_NULL_","_NULL_"
"_ALL_","RESPIRATORY, THORACIC AND MEDIASTINAL DISORDERS","DYSPNOEA","Y","countdistinct","USUBJID",3,220,4,2,"_NULL_","_NULL_"
"_ALL_","RESPIRATORY, THORACIC AND MEDIASTINAL DISORDERS","EMPHYSEMA","Y","count","quantity",1,221,4,1,"_NULL_","_NULL_"
"_ALL_","RESPIRATORY, THORACIC AND MEDIASTINAL DISORDERS","EMPHYSEMA","Y","countdistinct","USUBJID",1,221,4,2,"_NULL_","_NULL_"
"_ALL_","RESPIRATORY, THORACIC AND MEDIASTINAL DISORDERS","EPISTAXIS","Y","count","quantity",3,222,4,1,"_NULL_","_NULL_"
"_ALL_","RESPIRATORY, THORACIC AND MEDIASTINAL DISORDERS","EPISTAXIS","Y","countdistinct","USUBJID",3,222,4,2,"_NULL_","_NULL_"
"_ALL_","RESPIRATORY, THORACIC AND MEDIASTINAL DISORDERS","HAEMOPTYSIS","Y","count","quantity",2,223,4,1,"_NULL_","_NULL_"
"_ALL_","RESPIRATORY, THORACIC AND MEDIASTINAL DISORDERS","HAEMOPTYSIS","Y","countdistinct","USUBJID",1,223,4,2,"_NULL_","_NULL_"
"_ALL_","RESPIRATORY, THORACIC AND MEDIASTINAL DISORDERS","NASAL CONGESTION","Y","count","quantity",8,224,4,1,"_NULL_","_NULL_"
"_ALL_","RESPIRATORY, THORACIC AND MEDIASTINAL DISORDERS","NASAL CONGESTION","Y","countdistinct","USUBJID",7,224,4,2,"_NULL_","_NULL_"
"_ALL_","RESPIRATORY, THORACIC AND MEDIASTINAL DISORDERS","PHARYNGEAL ERYTHEMA","Y","count","quantity",2,225,4,1,"_NULL_","_NULL_"
"_ALL_","RESPIRATORY, THORACIC AND MEDIASTINAL DISORDERS","PHARYNGEAL ERYTHEMA","Y","countdistinct","USUBJID",1,225,4,2,"_NULL_","_NULL_"
"_ALL_","RESPIRATORY, THORACIC AND MEDIASTINAL DISORDERS","PHARYNGOLARYNGEAL PAIN","Y","count","quantity",2,226,4,1,"_NULL_","_NULL_"
"_ALL_","RESPIRATORY, THORACIC AND MEDIASTINAL DISORDERS","PHARYNGOLARYNGEAL PAIN","Y","countdistinct","USUBJID",2,226,4,2,"_NULL_","_NULL_"
"_ALL_","RESPIRATORY, THORACIC AND MEDIASTINAL DISORDERS","POSTNASAL DRIP","Y","count","quantity",2,227,4,1,"_NULL_","_NULL_"
"_ALL_","RESPIRATORY, THORACIC AND MEDIASTINAL DISORDERS","POSTNASAL DRIP","Y","countdistinct","USUBJID",1,227,4,2,"_NULL_","_NULL_"
"_ALL_","RESPIRATORY, THORACIC AND MEDIASTINAL DISORDERS","PRODUCTIVE COUGH","Y","count","quantity",1,228,4,1,"_NULL_","_NULL_"
"_ALL_","RESPIRATORY, THORACIC AND MEDIASTINAL DISORDERS","PRODUCTIVE COUGH","Y","countdistinct","USUBJID",1,228,4,2,"_NULL_","_NULL_"
"_ALL_","RESPIRATORY, THORACIC AND MEDIASTINAL DISORDERS","RALES","Y","count","quantity",2,229,4,1,"_NULL_","_NULL_"
"_ALL_","RESPIRATORY, THORACIC AND MEDIASTINAL DISORDERS","RALES","Y","countdistinct","USUBJID",1,229,4,2,"_NULL_","_NULL_"
"_ALL_","RESPIRATORY, THORACIC AND MEDIASTINAL DISORDERS","RESPIRATORY TRACT CONGESTION","Y","count","quantity",1,230,4,1,"_NULL_","_NULL_"
"_ALL_","RESPIRATORY, THORACIC AND MEDIASTINAL DISORDERS","RESPIRATORY TRACT CONGESTION","Y","countdistinct","USUBJID",1,230,4,2,"_NULL_","_NULL_"
"_ALL_","RESPIRATORY, THORACIC AND MEDIASTINAL DISORDERS","RHINORRHOEA","Y","count","quantity",4,231,4,1,"_NULL_","_NULL_"
"_ALL_","RESPIRATORY, THORACIC AND MEDIASTINAL DISORDERS","RHINORRHOEA","Y","countdistinct","USUBJID",2,231,4,2,"_NULL_","_NULL_"
"_ALL_","SKIN AND SUBCUTANEOUS TISSUE DISORDERS","_ALL_","Y","count","quantity",276,232,4,1,"_NULL_","_NULL_"
"_ALL_","SKIN AND SUBCUTANEOUS TISSUE DISORDERS","_ALL_","Y","countdistinct","USUBJID",105,232,4,2,"_NULL_","_NULL_"
"_ALL_","SKIN AND SUBCUTANEOUS TISSUE DISORDERS","ACTINIC KERATOSIS","Y","count","quantity",1,233,4,1,"_NULL_","_NULL_"
"_ALL_","SKIN AND SUBCUTANEOUS TISSUE DISORDERS","ACTINIC KERATOSIS","Y","countdistinct","USUBJID",1,233,4,2,"_NULL_","_NULL_"
"_ALL_","SKIN AND SUBCUTANEOUS TISSUE DISORDERS","ALOPECIA","Y","count","quantity",1,234,4,1,"_NULL_","_NULL_"
"_ALL_","SKIN AND SUBCUTANEOUS TISSUE DISORDERS","ALOPECIA","Y","countdistinct","USUBJID",1,234,4,2,"_NULL_","_NULL_"
"_ALL_","SKIN AND SUBCUTANEOUS TISSUE DISORDERS","BLISTER","Y","count","quantity",10,235,4,1,"_NULL_","_NULL_"
"_ALL_","SKIN AND SUBCUTANEOUS TISSUE DISORDERS","BLISTER","Y","countdistinct","USUBJID",6,235,4,2,"_NULL_","_NULL_"
"_ALL_","SKIN AND SUBCUTANEOUS TISSUE DISORDERS","COLD SWEAT","Y","count","quantity",3,236,4,1,"_NULL_","_NULL_"
"_ALL_","SKIN AND SUBCUTANEOUS TISSUE DISORDERS","COLD SWEAT","Y","countdistinct","USUBJID",1,236,4,2,"_NULL_","_NULL_"
"_ALL_","SKIN AND SUBCUTANEOUS TISSUE DISORDERS","DERMATITIS ATOPIC","Y","count","quantity",1,237,4,1,"_NULL_","_NULL_"
"_ALL_","SKIN AND SUBCUTANEOUS TISSUE DISORDERS","DERMATITIS ATOPIC","Y","countdistinct","USUBJID",1,237,4,2,"_NULL_","_NULL_"
"_ALL_","SKIN AND SUBCUTANEOUS TISSUE DISORDERS","DERMATITIS CONTACT","Y","count","quantity",2,238,4,1,"_NULL_","_NULL_"
"_ALL_","SKIN AND SUBCUTANEOUS TISSUE DISORDERS","DERMATITIS CONTACT","Y","countdistinct","USUBJID",1,238,4,2,"_NULL_","_NULL_"
"_ALL_","SKIN AND SUBCUTANEOUS TISSUE DISORDERS","DRUG ERUPTION","Y","count","quantity",1,239,4,1,"_NULL_","_NULL_"
"_ALL_","SKIN AND SUBCUTANEOUS TISSUE DISORDERS","DRUG ERUPTION","Y","countdistinct","USUBJID",1,239,4,2,"_NULL_","_NULL_"
"_ALL_","SKIN AND SUBCUTANEOUS TISSUE DISORDERS","ERYTHEMA","Y","count","quantity",59,240,4,1,"_NULL_","_NULL_"
"_ALL_","SKIN AND SUBCUTANEOUS TISSUE DISORDERS","ERYTHEMA","Y","countdistinct","USUBJID",38,240,4,2,"_NULL_","_NULL_"
"_ALL_","SKIN AND SUBCUTANEOUS TISSUE DISORDERS","HYPERHIDROSIS","Y","count","quantity",17,241,4,1,"_NULL_","_NULL_"
"_ALL_","SKIN AND SUBCUTANEOUS TISSUE DISORDERS","HYPERHIDROSIS","Y","countdistinct","USUBJID",14,241,4,2,"_NULL_","_NULL_"
"_ALL_","SKIN AND SUBCUTANEOUS TISSUE DISORDERS","PRURITUS","Y","count","quantity",84,242,4,1,"_NULL_","_NULL_"
"_ALL_","SKIN AND SUBCUTANEOUS TISSUE DISORDERS","PRURITUS","Y","countdistinct","USUBJID",57,242,4,2,"_NULL_","_NULL_"
"_ALL_","SKIN AND SUBCUTANEOUS TISSUE DISORDERS","PRURITUS GENERALISED","Y","count","quantity",5,243,4,1,"_NULL_","_NULL_"
"_ALL_","SKIN AND SUBCUTANEOUS TISSUE DISORDERS","PRURITUS GENERALISED","Y","countdistinct","USUBJID",2,243,4,2,"_NULL_","_NULL_"
"_ALL_","SKIN AND SUBCUTANEOUS TISSUE DISORDERS","RASH","Y","count","quantity",45,244,4,1,"_NULL_","_NULL_"
"_ALL_","SKIN AND SUBCUTANEOUS TISSUE DISORDERS","RASH","Y","countdistinct","USUBJID",29,244,4,2,"_NULL_","_NULL_"
"_ALL_","SKIN AND SUBCUTANEOUS TISSUE DISORDERS","RASH ERYTHEMATOUS","Y","count","quantity",2,245,4,1,"_NULL_","_NULL_"
"_ALL_","SKIN AND SUBCUTANEOUS TISSUE DISORDERS","RASH ERYTHEMATOUS","Y","countdistinct","USUBJID",2,245,4,2,"_NULL_","_NULL_"
"_ALL_","SKIN AND SUBCUTANEOUS TISSUE DISORDERS","RASH MACULO-PAPULAR","Y","count","quantity",3,246,4,1,"_NULL_","_NULL_"
"_ALL_","SKIN AND SUBCUTANEOUS TISSUE DISORDERS","RASH MACULO-PAPULAR","Y","countdistinct","USUBJID",1,246,4,2,"_NULL_","_NULL_"
"_ALL_","SKIN AND SUBCUTANEOUS TISSUE DISORDERS","RASH PAPULAR","Y","count","quantity",2,247,4,1,"_NULL_","_NULL_"
"_ALL_","SKIN AND SUBCUTANEOUS TISSUE DISORDERS","RASH PAPULAR","Y","countdistinct","USUBJID",1,247,4,2,"_NULL_","_NULL_"
"_ALL_","SKIN AND SUBCUTANEOUS TISSUE DISORDERS","RASH PRURITIC","Y","count","quantity",5,248,4,1,"_NULL_","_NULL_"
"_ALL_","SKIN AND SUBCUTANEOUS TISSUE DISORDERS","RASH PRURITIC","Y","countdistinct","USUBJID",3,248,4,2,"_NULL_","_NULL_"
"_ALL_","SKIN AND SUBCUTANEOUS TISSUE DISORDERS","SKIN EXFOLIATION","Y","count","quantity",2,249,4,1,"_NULL_","_NULL_"
"_ALL_","SKIN AND SUBCUTANEOUS TISSUE DISORDERS","SKIN EXFOLIATION","Y","countdistinct","USUBJID",1,249,4,2,"_NULL_","_NULL_"
"_ALL_","SKIN AND SUBCUTANEOUS TISSUE DISORDERS","SKIN IRRITATION","Y","count","quantity",25,250,4,1,"_NULL_","_NULL_"
"_ALL_","SKIN AND SUBCUTANEOUS TISSUE DISORDERS","SKIN IRRITATION","Y","countdistinct","USUBJID",14,250,4,2,"_NULL_","_NULL_"
"_ALL_","SKIN AND SUBCUTANEOUS TISSUE DISORDERS","SKIN ODOUR ABNORMAL","Y","count","quantity",1,251,4,1,"_NULL_","_NULL_"
"_ALL_","SKIN AND SUBCUTANEOUS TISSUE DISORDERS","SKIN ODOUR ABNORMAL","Y","countdistinct","USUBJID",1,251,4,2,"_NULL_","_NULL_"
"_ALL_","SKIN AND SUBCUTANEOUS TISSUE DISORDERS","SKIN ULCER","Y","count","quantity",2,252,4,1,"_NULL_","_NULL_"
"_ALL_","SKIN AND SUBCUTANEOUS TISSUE DISORDERS","SKIN ULCER","Y","countdistinct","USUBJID",1,252,4,2,"_NULL_","_NULL_"
"_ALL_","SKIN AND SUBCUTANEOUS TISSUE DISORDERS","URTICARIA","Y","count","quantity",5,253,4,1,"_NULL_","_NULL_"
"_ALL_","SKIN AND SUBCUTANEOUS TISSUE DISORDERS","URTICARIA","Y","countdistinct","USUBJID",2,253,4,2,"_NULL_","_NULL_"
"_ALL_","SOCIAL CIRCUMSTANCES","_ALL_","Y","count","quantity",1,254,4,1,"_NULL_","_NULL_"
"_ALL_","SOCIAL CIRCUMSTANCES","_ALL_","Y","countdistinct","USUBJID",1,254,4,2,"_NULL_","_NULL_"
"_ALL_","SOCIAL CIRCUMSTANCES","ALCOHOL USE","Y","count","quantity",1,255,4,1,"_NULL_","_NULL_"
"_ALL_","SOCIAL CIRCUMSTANCES","ALCOHOL USE","Y","countdistinct","USUBJID",1,255,4,2,"_NULL_","_NULL_"
"_ALL_","SURGICAL AND MEDICAL PROCEDURES","_ALL_","Y","count","quantity",5,256,4,1,"_NULL_","_NULL_"
"_ALL_","SURGICAL AND MEDICAL PROCEDURES","_ALL_","Y","countdistinct","USUBJID",5,256,4,2,"_NULL_","_NULL_"
"_ALL_","SURGICAL AND MEDICAL PROCEDURES","ACROCHORDON EXCISION","Y","count","quantity",1,257,4,1,"_NULL_","_NULL_"
"_ALL_","SURGICAL AND MEDICAL PROCEDURES","ACROCHORDON EXCISION","Y","countdistinct","USUBJID",1,257,4,2,"_NULL_","_NULL_"
"_ALL_","SURGICAL AND MEDICAL PROCEDURES","CATARACT OPERATION","Y","count","quantity",2,258,4,1,"_NULL_","_NULL_"
"_ALL_","SURGICAL AND MEDICAL PROCEDURES","CATARACT OPERATION","Y","countdistinct","USUBJID",2,258,4,2,"_NULL_","_NULL_"
"_ALL_","SURGICAL AND MEDICAL PROCEDURES","EYE LASER SURGERY","Y","count","quantity",1,259,4,1,"_NULL_","_NULL_"
"_ALL_","SURGICAL AND MEDICAL PROCEDURES","EYE LASER SURGERY","Y","countdistinct","USUBJID",1,259,4,2,"_NULL_","_NULL_"
"_ALL_","SURGICAL AND MEDICAL PROCEDURES","SKIN LESION EXCISION","Y","count","quantity",1,260,4,1,"_NULL_","_NULL_"
"_ALL_","SURGICAL AND MEDICAL PROCEDURES","SKIN LESION EXCISION","Y","countdistinct","USUBJID",1,260,4,2,"_NULL_","_NULL_"
"_ALL_","VASCULAR DISORDERS","_ALL_","Y","count","quantity",13,261,4,1,"_NULL_","_NULL_"
"_ALL_","VASCULAR DISORDERS","_ALL_","Y","countdistinct","USUBJID",8,261,4,2,"_NULL_","_NULL_"
"_ALL_","VASCULAR DISORDERS","HOT FLUSH","Y","count","quantity",1,262,4,1,"_NULL_","_NULL_"
"_ALL_","VASCULAR DISORDERS","HOT FLUSH","Y","countdistinct","USUBJID",1,262,4,2,"_NULL_","_NULL_"
"_ALL_","VASCULAR DISORDERS","HYPERTENSION","Y","count","quantity",5,263,4,1,"_NULL_","_NULL_"
"_ALL_","VASCULAR DISORDERS","HYPERTENSION","Y","countdistinct","USUBJID",3,263,4,2,"_NULL_","_NULL_"
"_ALL_","VASCULAR DISORDERS","HYPOTENSION","Y","count","quantity",4,264,4,1,"_NULL_","_NULL_"
"_ALL_","VASCULAR DISORDERS","HYPOTENSION","Y","countdistinct","USUBJID",3,264,4,2,"_NULL_","_NULL_"
"_ALL_","VASCULAR DISORDERS","ORTHOSTATIC HYPOTENSION","Y","count","quantity",2,265,4,1,"_NULL_","_NULL_"
"_ALL_","VASCULAR DISORDERS","ORTHOSTATIC HYPOTENSION","Y","countdistinct","USUBJID",1,265,4,2,"_NULL_","_NULL_"
"_ALL_","VASCULAR DISORDERS","WOUND HAEMORRHAGE","Y","count","quantity",1,266,4,1,"_NULL_","_NULL_"
"_ALL_","VASCULAR DISORDERS","WOUND HAEMORRHAGE","Y","countdistinct","USUBJID",1,266,4,2,"_NULL_","_NULL_"
